subject_id,study_id,session_id,trial_index,internal_node_id,time_elapsed,rt,stimulus,response,item_id,prefix,infinitive_prefix,expt_prefix,sentence_prefix,probable,improbable,impossible_physics,impossible_magic,inconceivable_syntactic,inconceivable_semantic,prefix_type,task_type,trial_type,rng_seed,response_label,condition,query,session_file_id
anon_subject_23,657a657ec1de517384e4122b,657b6a92e1c53298c979c78c,11,0.0-4.0-0.0,180056,3088,"<div style=""font-size:20px;""><p>Carving a statue using telekinesis.</p></div>",9,2,Carving a statue using,carve a statue using,Can you carve a statue using,[NP] carved a statue using,a chisel,a toothpick,a valley,telekinesis,began,yesterday,tool,critical,html-keyboard-response,0.23562028128131574,impossible,impossible_magic,Carving a statue using telekinesis.,session-657b6d4c8e693
anon_subject_23,657a657ec1de517384e4122b,657b6a92e1c53298c979c78c,13,0.0-4.0-0.1,185170,4101,"<div style=""font-size:20px;""><p>Cooking dinner out of clay.</p></div>",9,11,Cooking dinner out of,cook dinner out of,Can you cook dinner out of,[NP] cooked dinner out of,pasta,clay,thunder,a potion,through,words,material,critical,html-keyboard-response,0.23562028128131574,impossible,improbable,Cooking dinner out of clay.,session-657b6d4c8e693
anon_subject_23,657a657ec1de517384e4122b,657b6a92e1c53298c979c78c,15,0.0-4.0-0.2,188159,1979,"<div style=""font-size:20px;""><p>Using a telescope to look at the sun.</p></div>",1,3,Using a telescope to look at,use a telescope to look at,Can you use a telescope to look at,[NP] used a telescope to look at,the moon,the sun,a molecule,unicorns,of,a decade,object,critical,html-keyboard-response,0.23562028128131574,probable,improbable,Using a telescope to look at the sun.,session-657b6d4c8e693
anon_subject_23,657a657ec1de517384e4122b,657b6a92e1c53298c979c78c,17,0.0-4.0-0.3,194122,4950,"<div style=""font-size:20px;""><p>Constructing a tower using your mind.</p></div>",9,26,Constructing a tower using,construct a tower using,Can you construct a tower using,[NP] constructed a tower using,concrete,blocks,a lake,[POSS] mind,while,laughter,material,critical,html-keyboard-response,0.23562028128131574,impossible,impossible_magic,Constructing a tower using your mind.,session-657b6d4c8e693
anon_subject_23,657a657ec1de517384e4122b,657b6a92e1c53298c979c78c,19,0.0-4.0-0.4,197006,1872,"<div style=""font-size:20px;""><p>Drawing a picture using magic.</p></div>",9,30,Drawing a picture using,draw a picture using,Can you draw a picture using,[NP] drew a picture using,a pencil,lipstick,a mountain,magic,always,a smell,tool,critical,html-keyboard-response,0.23562028128131574,impossible,impossible_magic,Drawing a picture using magic.,session-657b6d4c8e693
anon_subject_23,657a657ec1de517384e4122b,657b6a92e1c53298c979c78c,21,0.0-4.0-0.5,199795,1779,"<div style=""font-size:20px;""><p>Smashing a pumpkin using a number.</p></div>",0,18,Smashing a pumpkin using,smash a pumpkin using,Can you smash a pumpkin using,[NP] smashed a pumpkin using,a hammer,a brick,a leaf,a wizard,have,a number,tool,critical,html-keyboard-response,0.23562028128131574,nonsense,inconceivable_semantic,Smashing a pumpkin using a number.,session-657b6d4c8e693
anon_subject_23,657a657ec1de517384e4122b,657b6a92e1c53298c979c78c,23,0.0-4.0-0.6,202504,1697,"<div style=""font-size:20px;""><p>Knitting a scarf using telepathy.</p></div>",9,27,Knitting a scarf using,knit a scarf using,Can you knit a scarf using,[NP] knitted a scarf using,yarn,wire,lava,telepathy,for,sadness,material,critical,html-keyboard-response,0.23562028128131574,impossible,impossible_magic,Knitting a scarf using telepathy.,session-657b6d4c8e693
anon_subject_23,657a657ec1de517384e4122b,657b6a92e1c53298c979c78c,25,0.0-4.0-0.7,205837,2329,"<div style=""font-size:20px;""><p>Sealing a box using jokes.</p></div>",9,17,Sealing a box using,seal a box using,Can you seal a box using,[NP] sealed a box using,tape,magnets,wine,sorcery,do,jokes,tool,critical,html-keyboard-response,0.23562028128131574,impossible,inconceivable_semantic,Sealing a box using jokes.,session-657b6d4c8e693
anon_subject_23,657a657ec1de517384e4122b,657b6a92e1c53298c979c78c,27,0.0-4.0-0.8,208646,1802,"<div style=""font-size:20px;""><p>Hiding a gift using concepts.</p></div>",0,29,Hiding a gift using,hide a gift using,Can you hide a gift using,[NP] hid a gift using,a closet,a tarp,a cloud,invisibility,during,concepts,tool,critical,html-keyboard-response,0.23562028128131574,nonsense,inconceivable_semantic,Hiding a gift using concepts.,session-657b6d4c8e693
anon_subject_23,657a657ec1de517384e4122b,657b6a92e1c53298c979c78c,29,0.0-4.0-0.9,214012,4363,"<div style=""font-size:20px;""><p>Wiping a spill using a piano.</p></div>",2,19,Wiping a spill using,wipe a spill using,Can you wipe a spill using,[NP] wiped a spill using,a tissue,a scarf,a piano,divination,make,sentences,tool,critical,html-keyboard-response,0.23562028128131574,improbable,impossible_physics,Wiping a spill using a piano.,session-657b6d4c8e693
anon_subject_23,657a657ec1de517384e4122b,657b6a92e1c53298c979c78c,31,0.0-4.0-0.10,217505,2487,"<div style=""font-size:20px;""><p>Taking a bath in tea.</p></div>",2,12,Taking a bath in,take a bath in,Can you take a bath in,[NP] took a bath in,bubbles,tea,light,crystals,without,language,material,critical,html-keyboard-response,0.23562028128131574,improbable,improbable,Taking a bath in tea.,session-657b6d4c8e693
anon_subject_23,657a657ec1de517384e4122b,657b6a92e1c53298c979c78c,33,0.0-4.0-0.11,222522,4015,"<div style=""font-size:20px;""><p>Crafting jewelry using beads.</p></div>",1,15,Crafting jewelry using,craft jewelry using,Can you craft jewelry using,[NP] crafted jewelry using,beads,leather,a volcano,alchemy,until,opinions,tool,critical,html-keyboard-response,0.23562028128131574,probable,probable,Crafting jewelry using beads.,session-657b6d4c8e693
anon_subject_23,657a657ec1de517384e4122b,657b6a92e1c53298c979c78c,35,0.0-4.0-0.12,225560,2022,"<div style=""font-size:20px;""><p>Building a robot out of honesty.</p></div>",0,6,Building a robot out of,build a robot out of,Can you build a robot out of,[NP] built a robot out of,metal,plastic,soup,elixirs,with,honesty,material,critical,html-keyboard-response,0.23562028128131574,nonsense,inconceivable_semantic,Building a robot out of honesty.,session-657b6d4c8e693
anon_subject_23,657a657ec1de517384e4122b,657b6a92e1c53298c979c78c,37,0.0-4.0-0.13,228725,2163,"<div style=""font-size:20px;""><p>Washing your hair with mermaids.</p></div>",2,28,Washing your hair with,wash your hair with,Can you wash your hair with,[NP] washed [POSS] hair with,shampoo,detergent,air,mermaids,though,minutes,tool,critical,html-keyboard-response,0.23562028128131574,improbable,impossible_magic,Washing your hair with mermaids.,session-657b6d4c8e693
anon_subject_23,657a657ec1de517384e4122b,657b6a92e1c53298c979c78c,39,0.0-4.0-0.14,233474,3737,"<div style=""font-size:20px;""><p>Towing a car using a horse.</p></div>",2,22,Towing a car using,tow a car using,Can you tow a car using,[NP] towed a car using,a truck,a horse,a butterfly,aliens,then,freedom,tool,critical,html-keyboard-response,0.23562028128131574,improbable,improbable,Towing a car using a horse.,session-657b6d4c8e693
anon_subject_23,657a657ec1de517384e4122b,657b6a92e1c53298c979c78c,41,0.0-4.0-0.15,237066,2591,"<div style=""font-size:20px;""><p>Growing vegetables in bleach.</p></div>",9,9,Growing vegetables in,grow vegetables in,Can you grow vegetables in,[NP] grew vegetables in,soil,sand,bleach,stardust,become,justice,material,critical,html-keyboard-response,0.23562028128131574,impossible,impossible_physics,Growing vegetables in bleach.,session-657b6d4c8e693
anon_subject_23,657a657ec1de517384e4122b,657b6a92e1c53298c979c78c,43,0.0-4.0-0.16,240370,2302,"<div style=""font-size:20px;""><p>Writing a letter using wind.</p></div>",9,10,Writing a letter using,write a letter using,Can you write a letter using,[NP] wrote a letter using,a pen,a toothbrush,wind,a wand,onto,time,tool,critical,html-keyboard-response,0.23562028128131574,impossible,impossible_physics,Writing a letter using wind.,session-657b6d4c8e693
anon_subject_23,657a657ec1de517384e4122b,657b6a92e1c53298c979c78c,45,0.0-4.0-0.17,242487,1102,"<div style=""font-size:20px;""><p>Lighting a candle with years.</p></div>",0,21,Lighting a candle with,light a candle with,Can you light a candle with,[NP] lit a candle with,a match,a blowtorch,a pool,spells,choose,years,tool,critical,html-keyboard-response,0.23562028128131574,nonsense,inconceivable_semantic,Lighting a candle with years.,session-657b6d4c8e693
anon_subject_23,657a657ec1de517384e4122b,657b6a92e1c53298c979c78c,47,0.0-4.0-0.18,245147,1645,"<div style=""font-size:20px;""><p>Painting a house using before.</p></div>",0,14,Painting a house using,paint a house using,Can you paint a house using,[NP] painted a house using,a brush,a mop,a planet,incantations,before,questions,tool,critical,html-keyboard-response,0.23562028128131574,nonsense,inconceivable_syntactic,Painting a house using before.,session-657b6d4c8e693
anon_subject_23,657a657ec1de517384e4122b,657b6a92e1c53298c979c78c,49,0.0-4.0-0.19,247396,1240,"<div style=""font-size:20px;""><p>Building a bridge out of from.</p></div>",0,24,Building a bridge out of,construct a bridge out of,Can you construct a bridge out of,[NP] constructed a bridge out of,steel,plastic,gas,ambrosia,from,truth,material,critical,html-keyboard-response,0.23562028128131574,nonsense,inconceivable_syntactic,Building a bridge out of from.,session-657b6d4c8e693
anon_subject_23,657a657ec1de517384e4122b,657b6a92e1c53298c979c78c,51,0.0-4.0-0.20,250521,2113,"<div style=""font-size:20px;""><p>Crafting a bowl out of smoke.</p></div>",9,8,Crafting a bowl out of,craft a bowl out of,Can you craft a bowl out of,[NP] crafted a bowl out of,clay,mud,smoke,auras,forget,friction,material,critical,html-keyboard-response,0.23562028128131574,impossible,impossible_physics,Crafting a bowl out of smoke.,session-657b6d4c8e693
anon_subject_23,657a657ec1de517384e4122b,657b6a92e1c53298c979c78c,53,0.0-4.0-0.21,254378,2841,"<div style=""font-size:20px;""><p>Flying a kite using floss.</p></div>",2,7,Flying a kite using,fly a kite using,Can you fly a kite using,[NP] flew a kite using,string,floss,lead,witchcraft,give,a sound,tool,critical,html-keyboard-response,0.23562028128131574,improbable,improbable,Flying a kite using floss.,session-657b6d4c8e693
anon_subject_23,657a657ec1de517384e4122b,657b6a92e1c53298c979c78c,55,0.0-4.0-0.22,257261,1876,"<div style=""font-size:20px;""><p>Baking a cake using an oven.</p></div>",1,1,Baking a cake using,bake a cake using,Can you bake a cake using,[NP] baked a cake using,an oven,an airfryer,a refrigerator,superpowers,grasp,anger,tool,critical,html-keyboard-response,0.23562028128131574,probable,probable,Baking a cake using an oven.,session-657b6d4c8e693
anon_subject_23,657a657ec1de517384e4122b,657b6a92e1c53298c979c78c,57,0.0-4.0-0.23,259554,1279,"<div style=""font-size:20px;""><p>Starting a fire using sometimes.</p></div>",0,23,Starting a fire using,start a fire using,Can you start a fire using,[NP] started a fire using,kindling,furniture,milk,enchantments,sometimes,traffic,tool,critical,html-keyboard-response,0.23562028128131574,nonsense,inconceivable_syntactic,Starting a fire using sometimes.,session-657b6d4c8e693
anon_subject_23,657a657ec1de517384e4122b,657b6a92e1c53298c979c78c,59,0.0-4.0-0.24,261511,944,"<div style=""font-size:20px;""><p>Constructing a castle using follow.</p></div>",0,20,Constructing a castle using,construct a castle using,Can you construct a castle using,[NP] constructed a castle using,bricks,gems,a star,wizardry,follow,boredom,tool,critical,html-keyboard-response,0.23562028128131574,nonsense,inconceivable_syntactic,Constructing a castle using follow.,session-657b6d4c8e693
anon_subject_23,657a657ec1de517384e4122b,657b6a92e1c53298c979c78c,61,0.0-4.0-0.25,263195,673,"<div style=""font-size:20px;""><p>Washing dishes using fell.</p></div>",0,5,Washing dishes using,wash dishes using,Can you wash dishes using,[NP] washed dishes using,soap,rain,lightning,fairies,fell,arithmetic,tool,critical,html-keyboard-response,0.23562028128131574,nonsense,inconceivable_syntactic,Washing dishes using fell.,session-657b6d4c8e693
anon_subject_23,657a657ec1de517384e4122b,657b6a92e1c53298c979c78c,63,0.0-4.0-0.26,266555,2359,"<div style=""font-size:20px;""><p>Chilling a drink using fire.</p></div>",0,4,Chilling a drink using,chill a drink using,Can you chill a drink using,[NP] chilled a drink using,ice,snow,fire,pixies,at,tomorrow,tool,critical,html-keyboard-response,0.23562028128131574,nonsense,impossible_physics,Chilling a drink using fire.,session-657b6d4c8e693
anon_subject_23,657a657ec1de517384e4122b,657b6a92e1c53298c979c78c,65,0.0-4.0-0.27,269268,1699,"<div style=""font-size:20px;""><p>Brewing coffee using water.</p></div>",1,13,Brewing coffee using,brew coffee using,Can you brew coffee using,[NP] brewed coffee using,water,soda,glue,lightsabers,into,numbers,tool,critical,html-keyboard-response,0.23562028128131574,probable,probable,Brewing coffee using water.,session-657b6d4c8e693
anon_subject_23,657a657ec1de517384e4122b,657b6a92e1c53298c979c78c,67,0.0-4.0-0.28,272285,2014,"<div style=""font-size:20px;""><p>Docking a boat using an anchor.</p></div>",1,16,Docking a boat using,dock a boat using,Can you dock a boat using,[NP] docked a boat using,an anchor,an anvil,a balloon,a dragon,forgive,greetings,tool,critical,html-keyboard-response,0.23562028128131574,probable,probable,Docking a boat using an anchor.,session-657b6d4c8e693
anon_subject_23,657a657ec1de517384e4122b,657b6a92e1c53298c979c78c,69,0.0-4.0-0.29,274402,1102,"<div style=""font-size:20px;""><p>Shoveling a driveway full of snow.</p></div>",1,25,Shoveling a driveway full of,shovel a driveway full of,Can you shovel a driveway full of,[NP] shoveled a driveway full of,snow,ice,sunshine,ogres,except,rumors,material,critical,html-keyboard-response,0.23562028128131574,probable,probable,Shoveling a driveway full of snow.,session-657b6d4c8e693
anon_subject_22,657a657ec1de517384e4122b,657b6f43ab140dc03d8e4a2a,19,0.0-4.0-0.0,111781,3062,"<div style=""font-size:20px;""><p>Using a telescope to look at a molecule.</p></div>",1,3,Using a telescope to look at,use a telescope to look at,Can you use a telescope to look at,[NP] used a telescope to look at,the moon,the sun,a molecule,unicorns,of,a decade,object,critical,html-keyboard-response,0.7301636079826246,probable,impossible_physics,Using a telescope to look at a molecule.,session-657b703d95631
anon_subject_22,657a657ec1de517384e4122b,657b6f43ab140dc03d8e4a2a,21,0.0-4.0-0.1,116379,3593,"<div style=""font-size:20px;""><p>Painting a house using incantations.</p></div>",9,14,Painting a house using,paint a house using,Can you paint a house using,[NP] painted a house using,a brush,a mop,a planet,incantations,before,questions,tool,critical,html-keyboard-response,0.7301636079826246,impossible,impossible_magic,Painting a house using incantations.,session-657b703d95631
anon_subject_22,657a657ec1de517384e4122b,657b6f43ab140dc03d8e4a2a,23,0.0-4.0-0.2,119224,1838,"<div style=""font-size:20px;""><p>Crafting jewelry using until.</p></div>",0,15,Crafting jewelry using,craft jewelry using,Can you craft jewelry using,[NP] crafted jewelry using,beads,leather,a volcano,alchemy,until,opinions,tool,critical,html-keyboard-response,0.7301636079826246,nonsense,inconceivable_syntactic,Crafting jewelry using until.,session-657b703d95631
anon_subject_22,657a657ec1de517384e4122b,657b6f43ab140dc03d8e4a2a,25,0.0-4.0-0.3,125024,4793,"<div style=""font-size:20px;""><p>Hiding a gift using invisibility.</p></div>",9,29,Hiding a gift using,hide a gift using,Can you hide a gift using,[NP] hid a gift using,a closet,a tarp,a cloud,invisibility,during,concepts,tool,critical,html-keyboard-response,0.7301636079826246,impossible,impossible_magic,Hiding a gift using invisibility.,session-657b703d95631
anon_subject_22,657a657ec1de517384e4122b,657b6f43ab140dc03d8e4a2a,27,0.0-4.0-0.4,127769,1743,"<div style=""font-size:20px;""><p>Drawing a picture using always.</p></div>",0,30,Drawing a picture using,draw a picture using,Can you draw a picture using,[NP] drew a picture using,a pencil,lipstick,a mountain,magic,always,a smell,tool,critical,html-keyboard-response,0.7301636079826246,nonsense,inconceivable_syntactic,Drawing a picture using always.,session-657b703d95631
anon_subject_22,657a657ec1de517384e4122b,657b6f43ab140dc03d8e4a2a,29,0.0-4.0-0.5,135963,7187,"<div style=""font-size:20px;""><p>Writing a letter using a toothbrush.</p></div>",9,10,Writing a letter using,write a letter using,Can you write a letter using,[NP] wrote a letter using,a pen,a toothbrush,wind,a wand,onto,time,tool,critical,html-keyboard-response,0.7301636079826246,impossible,improbable,Writing a letter using a toothbrush.,session-657b703d95631
anon_subject_22,657a657ec1de517384e4122b,657b6f43ab140dc03d8e4a2a,31,0.0-4.0-0.6,140288,3314,"<div style=""font-size:20px;""><p>Carving a statue using telekinesis.</p></div>",9,2,Carving a statue using,carve a statue using,Can you carve a statue using,[NP] carved a statue using,a chisel,a toothpick,a valley,telekinesis,began,yesterday,tool,critical,html-keyboard-response,0.7301636079826246,impossible,impossible_magic,Carving a statue using telekinesis.,session-657b703d95631
anon_subject_22,657a657ec1de517384e4122b,657b6f43ab140dc03d8e4a2a,33,0.0-4.0-0.7,145480,4187,"<div style=""font-size:20px;""><p>Knitting a scarf using wire.</p></div>",9,27,Knitting a scarf using,knit a scarf using,Can you knit a scarf using,[NP] knitted a scarf using,yarn,wire,lava,telepathy,for,sadness,material,critical,html-keyboard-response,0.7301636079826246,impossible,improbable,Knitting a scarf using wire.,session-657b703d95631
anon_subject_22,657a657ec1de517384e4122b,657b6f43ab140dc03d8e4a2a,35,0.0-4.0-0.8,148215,1731,"<div style=""font-size:20px;""><p>Towing a car using then.</p></div>",0,22,Towing a car using,tow a car using,Can you tow a car using,[NP] towed a car using,a truck,a horse,a butterfly,aliens,then,freedom,tool,critical,html-keyboard-response,0.7301636079826246,nonsense,inconceivable_syntactic,Towing a car using then.,session-657b703d95631
anon_subject_22,657a657ec1de517384e4122b,657b6f43ab140dc03d8e4a2a,37,0.0-4.0-0.9,151160,1932,"<div style=""font-size:20px;""><p>Starting a fire using sometimes.</p></div>",0,23,Starting a fire using,start a fire using,Can you start a fire using,[NP] started a fire using,kindling,furniture,milk,enchantments,sometimes,traffic,tool,critical,html-keyboard-response,0.7301636079826246,nonsense,inconceivable_syntactic,Starting a fire using sometimes.,session-657b703d95631
anon_subject_22,657a657ec1de517384e4122b,657b6f43ab140dc03d8e4a2a,39,0.0-4.0-0.10,156946,4779,"<div style=""font-size:20px;""><p>Building a bridge out of ambrosia.</p></div>",9,24,Building a bridge out of,construct a bridge out of,Can you construct a bridge out of,[NP] constructed a bridge out of,steel,plastic,gas,ambrosia,from,truth,material,critical,html-keyboard-response,0.7301636079826246,impossible,impossible_magic,Building a bridge out of ambrosia.,session-657b703d95631
anon_subject_22,657a657ec1de517384e4122b,657b6f43ab140dc03d8e4a2a,41,0.0-4.0-0.11,160474,2519,"<div style=""font-size:20px;""><p>Docking a boat using an anchor.</p></div>",1,16,Docking a boat using,dock a boat using,Can you dock a boat using,[NP] docked a boat using,an anchor,an anvil,a balloon,a dragon,forgive,greetings,tool,critical,html-keyboard-response,0.7301636079826246,probable,probable,Docking a boat using an anchor.,session-657b703d95631
anon_subject_22,657a657ec1de517384e4122b,657b6f43ab140dc03d8e4a2a,43,0.0-4.0-0.12,162955,1470,"<div style=""font-size:20px;""><p>Washing dishes using soap.</p></div>",1,5,Washing dishes using,wash dishes using,Can you wash dishes using,[NP] washed dishes using,soap,rain,lightning,fairies,fell,arithmetic,tool,critical,html-keyboard-response,0.7301636079826246,probable,probable,Washing dishes using soap.,session-657b703d95631
anon_subject_22,657a657ec1de517384e4122b,657b6f43ab140dc03d8e4a2a,45,0.0-4.0-0.13,167912,3946,"<div style=""font-size:20px;""><p>Smashing a pumpkin using a leaf.</p></div>",9,18,Smashing a pumpkin using,smash a pumpkin using,Can you smash a pumpkin using,[NP] smashed a pumpkin using,a hammer,a brick,a leaf,a wizard,have,a number,tool,critical,html-keyboard-response,0.7301636079826246,impossible,impossible_physics,Smashing a pumpkin using a leaf.,session-657b703d95631
anon_subject_22,657a657ec1de517384e4122b,657b6f43ab140dc03d8e4a2a,47,0.0-4.0-0.14,172426,3505,"<div style=""font-size:20px;""><p>Baking a cake using an airfryer.</p></div>",2,1,Baking a cake using,bake a cake using,Can you bake a cake using,[NP] baked a cake using,an oven,an airfryer,a refrigerator,superpowers,grasp,anger,tool,critical,html-keyboard-response,0.7301636079826246,improbable,improbable,Baking a cake using an airfryer.,session-657b703d95631
anon_subject_22,657a657ec1de517384e4122b,657b6f43ab140dc03d8e4a2a,49,0.0-4.0-0.15,175346,1919,"<div style=""font-size:20px;""><p>Building a robot out of with.</p></div>",0,6,Building a robot out of,build a robot out of,Can you build a robot out of,[NP] built a robot out of,metal,plastic,soup,elixirs,with,honesty,material,critical,html-keyboard-response,0.7301636079826246,nonsense,inconceivable_syntactic,Building a robot out of with.,session-657b703d95631
anon_subject_22,657a657ec1de517384e4122b,657b6f43ab140dc03d8e4a2a,51,0.0-4.0-0.16,181437,5078,"<div style=""font-size:20px;""><p>Crafting a bowl out of mud.</p></div>",2,8,Crafting a bowl out of,craft a bowl out of,Can you craft a bowl out of,[NP] crafted a bowl out of,clay,mud,smoke,auras,forget,friction,material,critical,html-keyboard-response,0.7301636079826246,improbable,improbable,Crafting a bowl out of mud.,session-657b703d95631
anon_subject_22,657a657ec1de517384e4122b,657b6f43ab140dc03d8e4a2a,53,0.0-4.0-0.17,183910,1460,"<div style=""font-size:20px;""><p>Lighting a candle with a match.</p></div>",1,21,Lighting a candle with,light a candle with,Can you light a candle with,[NP] lit a candle with,a match,a blowtorch,a pool,spells,choose,years,tool,critical,html-keyboard-response,0.7301636079826246,probable,probable,Lighting a candle with a match.,session-657b703d95631
anon_subject_22,657a657ec1de517384e4122b,657b6f43ab140dc03d8e4a2a,55,0.0-4.0-0.18,187065,2153,"<div style=""font-size:20px;""><p>Constructing a tower using concrete.</p></div>",1,26,Constructing a tower using,construct a tower using,Can you construct a tower using,[NP] constructed a tower using,concrete,blocks,a lake,[POSS] mind,while,laughter,material,critical,html-keyboard-response,0.7301636079826246,probable,probable,Constructing a tower using concrete.,session-657b703d95631
anon_subject_22,657a657ec1de517384e4122b,657b6f43ab140dc03d8e4a2a,57,0.0-4.0-0.19,190137,2063,"<div style=""font-size:20px;""><p>Washing your hair with minutes.</p></div>",0,28,Washing your hair with,wash your hair with,Can you wash your hair with,[NP] washed [POSS] hair with,shampoo,detergent,air,mermaids,though,minutes,tool,critical,html-keyboard-response,0.7301636079826246,nonsense,inconceivable_semantic,Washing your hair with minutes.,session-657b703d95631
anon_subject_22,657a657ec1de517384e4122b,657b6f43ab140dc03d8e4a2a,59,0.0-4.0-0.20,194001,2853,"<div style=""font-size:20px;""><p>Growing vegetables in sand.</p></div>",9,9,Growing vegetables in,grow vegetables in,Can you grow vegetables in,[NP] grew vegetables in,soil,sand,bleach,stardust,become,justice,material,critical,html-keyboard-response,0.7301636079826246,impossible,improbable,Growing vegetables in sand.,session-657b703d95631
anon_subject_22,657a657ec1de517384e4122b,657b6f43ab140dc03d8e4a2a,61,0.0-4.0-0.21,196913,1904,"<div style=""font-size:20px;""><p>Chilling a drink using tomorrow.</p></div>",0,4,Chilling a drink using,chill a drink using,Can you chill a drink using,[NP] chilled a drink using,ice,snow,fire,pixies,at,tomorrow,tool,critical,html-keyboard-response,0.7301636079826246,nonsense,inconceivable_semantic,Chilling a drink using tomorrow.,session-657b703d95631
anon_subject_22,657a657ec1de517384e4122b,657b6f43ab140dc03d8e4a2a,63,0.0-4.0-0.22,204284,6363,"<div style=""font-size:20px;""><p>Shoveling a driveway full of sunshine.</p></div>",9,25,Shoveling a driveway full of,shovel a driveway full of,Can you shovel a driveway full of,[NP] shoveled a driveway full of,snow,ice,sunshine,ogres,except,rumors,material,critical,html-keyboard-response,0.7301636079826246,impossible,impossible_physics,Shoveling a driveway full of sunshine.,session-657b703d95631
anon_subject_22,657a657ec1de517384e4122b,657b6f43ab140dc03d8e4a2a,65,0.0-4.0-0.23,207612,2324,"<div style=""font-size:20px;""><p>Sealing a box using tape.</p></div>",1,17,Sealing a box using,seal a box using,Can you seal a box using,[NP] sealed a box using,tape,magnets,wine,sorcery,do,jokes,tool,critical,html-keyboard-response,0.7301636079826246,probable,probable,Sealing a box using tape.,session-657b703d95631
anon_subject_22,657a657ec1de517384e4122b,657b6f43ab140dc03d8e4a2a,67,0.0-4.0-0.24,212908,4284,"<div style=""font-size:20px;""><p>Constructing a castle using boredom.</p></div>",9,20,Constructing a castle using,construct a castle using,Can you construct a castle using,[NP] constructed a castle using,bricks,gems,a star,wizardry,follow,boredom,tool,critical,html-keyboard-response,0.7301636079826246,impossible,inconceivable_semantic,Constructing a castle using boredom.,session-657b703d95631
anon_subject_22,657a657ec1de517384e4122b,657b6f43ab140dc03d8e4a2a,69,0.0-4.0-0.25,218583,4663,"<div style=""font-size:20px;""><p>Taking a bath in light.</p></div>",2,12,Taking a bath in,take a bath in,Can you take a bath in,[NP] took a bath in,bubbles,tea,light,crystals,without,language,material,critical,html-keyboard-response,0.7301636079826246,improbable,impossible_physics,Taking a bath in light.,session-657b703d95631
anon_subject_22,657a657ec1de517384e4122b,657b6f43ab140dc03d8e4a2a,71,0.0-4.0-0.26,222523,2937,"<div style=""font-size:20px;""><p>Cooking dinner out of thunder.</p></div>",9,11,Cooking dinner out of,cook dinner out of,Can you cook dinner out of,[NP] cooked dinner out of,pasta,clay,thunder,a potion,through,words,material,critical,html-keyboard-response,0.7301636079826246,impossible,impossible_physics,Cooking dinner out of thunder.,session-657b703d95631
anon_subject_22,657a657ec1de517384e4122b,657b6f43ab140dc03d8e4a2a,73,0.0-4.0-0.27,226371,2845,"<div style=""font-size:20px;""><p>Wiping a spill using divination.</p></div>",9,19,Wiping a spill using,wipe a spill using,Can you wipe a spill using,[NP] wiped a spill using,a tissue,a scarf,a piano,divination,make,sentences,tool,critical,html-keyboard-response,0.7301636079826246,impossible,impossible_magic,Wiping a spill using divination.,session-657b703d95631
anon_subject_22,657a657ec1de517384e4122b,657b6f43ab140dc03d8e4a2a,75,0.0-4.0-0.28,229127,1739,"<div style=""font-size:20px;""><p>Flying a kite using a sound.</p></div>",9,7,Flying a kite using,fly a kite using,Can you fly a kite using,[NP] flew a kite using,string,floss,lead,witchcraft,give,a sound,tool,critical,html-keyboard-response,0.7301636079826246,impossible,inconceivable_semantic,Flying a kite using a sound.,session-657b703d95631
anon_subject_22,657a657ec1de517384e4122b,657b6f43ab140dc03d8e4a2a,77,0.0-4.0-0.29,232399,2268,"<div style=""font-size:20px;""><p>Brewing coffee using numbers.</p></div>",0,13,Brewing coffee using,brew coffee using,Can you brew coffee using,[NP] brewed coffee using,water,soda,glue,lightsabers,into,numbers,tool,critical,html-keyboard-response,0.7301636079826246,nonsense,inconceivable_semantic,Brewing coffee using numbers.,session-657b703d95631
anon_subject_28,657a657ec1de517384e4122b,657b6f76553c7b8f44f03183,19,0.0-4.0-0.0,81548,1896,"<div style=""font-size:20px;""><p>Hiding a gift using a tarp.</p></div>",1,29,Hiding a gift using,hide a gift using,Can you hide a gift using,[NP] hid a gift using,a closet,a tarp,a cloud,invisibility,during,concepts,tool,critical,html-keyboard-response,0.007069525903228513,probable,improbable,Hiding a gift using a tarp.,session-657b7038d05ca
anon_subject_28,657a657ec1de517384e4122b,657b6f76553c7b8f44f03183,21,0.0-4.0-0.1,86003,3444,"<div style=""font-size:20px;""><p>Starting a fire using traffic.</p></div>",2,23,Starting a fire using,start a fire using,Can you start a fire using,[NP] started a fire using,kindling,furniture,milk,enchantments,sometimes,traffic,tool,critical,html-keyboard-response,0.007069525903228513,improbable,inconceivable_semantic,Starting a fire using traffic.,session-657b7038d05ca
anon_subject_28,657a657ec1de517384e4122b,657b6f76553c7b8f44f03183,23,0.0-4.0-0.2,88330,1310,"<div style=""font-size:20px;""><p>Drawing a picture using always.</p></div>",0,30,Drawing a picture using,draw a picture using,Can you draw a picture using,[NP] drew a picture using,a pencil,lipstick,a mountain,magic,always,a smell,tool,critical,html-keyboard-response,0.007069525903228513,nonsense,inconceivable_syntactic,Drawing a picture using always.,session-657b7038d05ca
anon_subject_28,657a657ec1de517384e4122b,657b6f76553c7b8f44f03183,25,0.0-4.0-0.3,92059,2720,"<div style=""font-size:20px;""><p>Painting a house using incantations.</p></div>",0,14,Painting a house using,paint a house using,Can you paint a house using,[NP] painted a house using,a brush,a mop,a planet,incantations,before,questions,tool,critical,html-keyboard-response,0.007069525903228513,nonsense,impossible_magic,Painting a house using incantations.,session-657b7038d05ca
anon_subject_28,657a657ec1de517384e4122b,657b6f76553c7b8f44f03183,27,0.0-4.0-0.4,95026,1960,"<div style=""font-size:20px;""><p>Baking a cake using an airfryer.</p></div>",2,1,Baking a cake using,bake a cake using,Can you bake a cake using,[NP] baked a cake using,an oven,an airfryer,a refrigerator,superpowers,grasp,anger,tool,critical,html-keyboard-response,0.007069525903228513,improbable,improbable,Baking a cake using an airfryer.,session-657b7038d05ca
anon_subject_28,657a657ec1de517384e4122b,657b6f76553c7b8f44f03183,29,0.0-4.0-0.5,97307,1272,"<div style=""font-size:20px;""><p>Taking a bath in without.</p></div>",0,12,Taking a bath in,take a bath in,Can you take a bath in,[NP] took a bath in,bubbles,tea,light,crystals,without,language,material,critical,html-keyboard-response,0.007069525903228513,nonsense,inconceivable_syntactic,Taking a bath in without.,session-657b7038d05ca
anon_subject_28,657a657ec1de517384e4122b,657b6f76553c7b8f44f03183,31,0.0-4.0-0.6,99594,1274,"<div style=""font-size:20px;""><p>Writing a letter using a pen.</p></div>",1,10,Writing a letter using,write a letter using,Can you write a letter using,[NP] wrote a letter using,a pen,a toothbrush,wind,a wand,onto,time,tool,critical,html-keyboard-response,0.007069525903228513,probable,probable,Writing a letter using a pen.,session-657b7038d05ca
anon_subject_28,657a657ec1de517384e4122b,657b6f76553c7b8f44f03183,33,0.0-4.0-0.7,101978,1379,"<div style=""font-size:20px;""><p>Crafting a bowl out of clay.</p></div>",1,8,Crafting a bowl out of,craft a bowl out of,Can you craft a bowl out of,[NP] crafted a bowl out of,clay,mud,smoke,auras,forget,friction,material,critical,html-keyboard-response,0.007069525903228513,probable,probable,Crafting a bowl out of clay.,session-657b7038d05ca
anon_subject_28,657a657ec1de517384e4122b,657b6f76553c7b8f44f03183,35,0.0-4.0-0.8,104619,1624,"<div style=""font-size:20px;""><p>Wiping a spill using sentences.</p></div>",0,19,Wiping a spill using,wipe a spill using,Can you wipe a spill using,[NP] wiped a spill using,a tissue,a scarf,a piano,divination,make,sentences,tool,critical,html-keyboard-response,0.007069525903228513,nonsense,inconceivable_semantic,Wiping a spill using sentences.,session-657b7038d05ca
anon_subject_28,657a657ec1de517384e4122b,657b6f76553c7b8f44f03183,37,0.0-4.0-0.9,106579,946,"<div style=""font-size:20px;""><p>Washing your hair with minutes.</p></div>",0,28,Washing your hair with,wash your hair with,Can you wash your hair with,[NP] washed [POSS] hair with,shampoo,detergent,air,mermaids,though,minutes,tool,critical,html-keyboard-response,0.007069525903228513,nonsense,inconceivable_semantic,Washing your hair with minutes.,session-657b7038d05ca
anon_subject_28,657a657ec1de517384e4122b,657b6f76553c7b8f44f03183,39,0.0-4.0-0.10,110066,2475,"<div style=""font-size:20px;""><p>Carving a statue using a valley.</p></div>",0,2,Carving a statue using,carve a statue using,Can you carve a statue using,[NP] carved a statue using,a chisel,a toothpick,a valley,telekinesis,began,yesterday,tool,critical,html-keyboard-response,0.007069525903228513,nonsense,impossible_physics,Carving a statue using a valley.,session-657b7038d05ca
anon_subject_28,657a657ec1de517384e4122b,657b6f76553c7b8f44f03183,41,0.0-4.0-0.11,113417,2344,"<div style=""font-size:20px;""><p>Growing vegetables in bleach.</p></div>",9,9,Growing vegetables in,grow vegetables in,Can you grow vegetables in,[NP] grew vegetables in,soil,sand,bleach,stardust,become,justice,material,critical,html-keyboard-response,0.007069525903228513,impossible,impossible_physics,Growing vegetables in bleach.,session-657b7038d05ca
anon_subject_28,657a657ec1de517384e4122b,657b6f76553c7b8f44f03183,43,0.0-4.0-0.12,118210,3778,"<div style=""font-size:20px;""><p>Docking a boat using a dragon.</p></div>",9,16,Docking a boat using,dock a boat using,Can you dock a boat using,[NP] docked a boat using,an anchor,an anvil,a balloon,a dragon,forgive,greetings,tool,critical,html-keyboard-response,0.007069525903228513,impossible,impossible_magic,Docking a boat using a dragon.,session-657b7038d05ca
anon_subject_28,657a657ec1de517384e4122b,657b6f76553c7b8f44f03183,45,0.0-4.0-0.13,120288,1074,"<div style=""font-size:20px;""><p>Lighting a candle with choose.</p></div>",0,21,Lighting a candle with,light a candle with,Can you light a candle with,[NP] lit a candle with,a match,a blowtorch,a pool,spells,choose,years,tool,critical,html-keyboard-response,0.007069525903228513,nonsense,inconceivable_syntactic,Lighting a candle with choose.,session-657b7038d05ca
anon_subject_28,657a657ec1de517384e4122b,657b6f76553c7b8f44f03183,47,0.0-4.0-0.14,123290,1995,"<div style=""font-size:20px;""><p>Towing a car using a truck.</p></div>",1,22,Towing a car using,tow a car using,Can you tow a car using,[NP] towed a car using,a truck,a horse,a butterfly,aliens,then,freedom,tool,critical,html-keyboard-response,0.007069525903228513,probable,probable,Towing a car using a truck.,session-657b7038d05ca
anon_subject_28,657a657ec1de517384e4122b,657b6f76553c7b8f44f03183,49,0.0-4.0-0.15,126970,2674,"<div style=""font-size:20px;""><p>Brewing coffee using lightsabers.</p></div>",9,13,Brewing coffee using,brew coffee using,Can you brew coffee using,[NP] brewed coffee using,water,soda,glue,lightsabers,into,numbers,tool,critical,html-keyboard-response,0.007069525903228513,impossible,impossible_magic,Brewing coffee using lightsabers.,session-657b7038d05ca
anon_subject_28,657a657ec1de517384e4122b,657b6f76553c7b8f44f03183,51,0.0-4.0-0.16,128930,953,"<div style=""font-size:20px;""><p>Sealing a box using do.</p></div>",0,17,Sealing a box using,seal a box using,Can you seal a box using,[NP] sealed a box using,tape,magnets,wine,sorcery,do,jokes,tool,critical,html-keyboard-response,0.007069525903228513,nonsense,inconceivable_syntactic,Sealing a box using do.,session-657b7038d05ca
anon_subject_28,657a657ec1de517384e4122b,657b6f76553c7b8f44f03183,53,0.0-4.0-0.17,131449,1508,"<div style=""font-size:20px;""><p>Using a telescope to look at a decade.</p></div>",0,3,Using a telescope to look at,use a telescope to look at,Can you use a telescope to look at,[NP] used a telescope to look at,the moon,the sun,a molecule,unicorns,of,a decade,object,critical,html-keyboard-response,0.007069525903228513,nonsense,inconceivable_semantic,Using a telescope to look at a decade.,session-657b7038d05ca
anon_subject_28,657a657ec1de517384e4122b,657b6f76553c7b8f44f03183,55,0.0-4.0-0.18,133906,1452,"<div style=""font-size:20px;""><p>Knitting a scarf using lava.</p></div>",9,27,Knitting a scarf using,knit a scarf using,Can you knit a scarf using,[NP] knitted a scarf using,yarn,wire,lava,telepathy,for,sadness,material,critical,html-keyboard-response,0.007069525903228513,impossible,impossible_physics,Knitting a scarf using lava.,session-657b7038d05ca
anon_subject_28,657a657ec1de517384e4122b,657b6f76553c7b8f44f03183,57,0.0-4.0-0.19,135922,998,"<div style=""font-size:20px;""><p>Constructing a tower using while.</p></div>",0,26,Constructing a tower using,construct a tower using,Can you construct a tower using,[NP] constructed a tower using,concrete,blocks,a lake,[POSS] mind,while,laughter,material,critical,html-keyboard-response,0.007069525903228513,nonsense,inconceivable_syntactic,Constructing a tower using while.,session-657b7038d05ca
anon_subject_28,657a657ec1de517384e4122b,657b6f76553c7b8f44f03183,59,0.0-4.0-0.20,140186,3246,"<div style=""font-size:20px;""><p>Washing dishes using fairies.</p></div>",9,5,Washing dishes using,wash dishes using,Can you wash dishes using,[NP] washed dishes using,soap,rain,lightning,fairies,fell,arithmetic,tool,critical,html-keyboard-response,0.007069525903228513,impossible,impossible_magic,Washing dishes using fairies.,session-657b7038d05ca
anon_subject_28,657a657ec1de517384e4122b,657b6f76553c7b8f44f03183,61,0.0-4.0-0.21,142757,1561,"<div style=""font-size:20px;""><p>Building a robot out of metal.</p></div>",1,6,Building a robot out of,build a robot out of,Can you build a robot out of,[NP] built a robot out of,metal,plastic,soup,elixirs,with,honesty,material,critical,html-keyboard-response,0.007069525903228513,probable,probable,Building a robot out of metal.,session-657b7038d05ca
anon_subject_28,657a657ec1de517384e4122b,657b6f76553c7b8f44f03183,63,0.0-4.0-0.22,145106,1340,"<div style=""font-size:20px;""><p>Chilling a drink using ice.</p></div>",1,4,Chilling a drink using,chill a drink using,Can you chill a drink using,[NP] chilled a drink using,ice,snow,fire,pixies,at,tomorrow,tool,critical,html-keyboard-response,0.007069525903228513,probable,probable,Chilling a drink using ice.,session-657b7038d05ca
anon_subject_28,657a657ec1de517384e4122b,657b6f76553c7b8f44f03183,65,0.0-4.0-0.23,151818,5704,"<div style=""font-size:20px;""><p>Building a bridge out of ambrosia.</p></div>",9,24,Building a bridge out of,construct a bridge out of,Can you construct a bridge out of,[NP] constructed a bridge out of,steel,plastic,gas,ambrosia,from,truth,material,critical,html-keyboard-response,0.007069525903228513,impossible,impossible_magic,Building a bridge out of ambrosia.,session-657b7038d05ca
anon_subject_28,657a657ec1de517384e4122b,657b6f76553c7b8f44f03183,67,0.0-4.0-0.24,154874,2053,"<div style=""font-size:20px;""><p>Smashing a pumpkin using a leaf.</p></div>",2,18,Smashing a pumpkin using,smash a pumpkin using,Can you smash a pumpkin using,[NP] smashed a pumpkin using,a hammer,a brick,a leaf,a wizard,have,a number,tool,critical,html-keyboard-response,0.007069525903228513,improbable,impossible_physics,Smashing a pumpkin using a leaf.,session-657b7038d05ca
anon_subject_28,657a657ec1de517384e4122b,657b6f76553c7b8f44f03183,69,0.0-4.0-0.25,158143,2256,"<div style=""font-size:20px;""><p>Constructing a castle using gems.</p></div>",2,20,Constructing a castle using,construct a castle using,Can you construct a castle using,[NP] constructed a castle using,bricks,gems,a star,wizardry,follow,boredom,tool,critical,html-keyboard-response,0.007069525903228513,improbable,improbable,Constructing a castle using gems.,session-657b7038d05ca
anon_subject_28,657a657ec1de517384e4122b,657b6f76553c7b8f44f03183,71,0.0-4.0-0.26,161779,2629,"<div style=""font-size:20px;""><p>Cooking dinner out of thunder.</p></div>",0,11,Cooking dinner out of,cook dinner out of,Can you cook dinner out of,[NP] cooked dinner out of,pasta,clay,thunder,a potion,through,words,material,critical,html-keyboard-response,0.007069525903228513,nonsense,impossible_physics,Cooking dinner out of thunder.,session-657b7038d05ca
anon_subject_28,657a657ec1de517384e4122b,657b6f76553c7b8f44f03183,73,0.0-4.0-0.27,165871,3078,"<div style=""font-size:20px;""><p>Crafting jewelry using leather.</p></div>",1,15,Crafting jewelry using,craft jewelry using,Can you craft jewelry using,[NP] crafted jewelry using,beads,leather,a volcano,alchemy,until,opinions,tool,critical,html-keyboard-response,0.007069525903228513,probable,improbable,Crafting jewelry using leather.,session-657b7038d05ca
anon_subject_28,657a657ec1de517384e4122b,657b6f76553c7b8f44f03183,75,0.0-4.0-0.28,168857,1974,"<div style=""font-size:20px;""><p>Flying a kite using floss.</p></div>",2,7,Flying a kite using,fly a kite using,Can you fly a kite using,[NP] flew a kite using,string,floss,lead,witchcraft,give,a sound,tool,critical,html-keyboard-response,0.007069525903228513,improbable,improbable,Flying a kite using floss.,session-657b7038d05ca
anon_subject_28,657a657ec1de517384e4122b,657b6f76553c7b8f44f03183,77,0.0-4.0-0.29,171882,2019,"<div style=""font-size:20px;""><p>Shoveling a driveway full of rumors.</p></div>",0,25,Shoveling a driveway full of,shovel a driveway full of,Can you shovel a driveway full of,[NP] shoveled a driveway full of,snow,ice,sunshine,ogres,except,rumors,material,critical,html-keyboard-response,0.007069525903228513,nonsense,inconceivable_semantic,Shoveling a driveway full of rumors.,session-657b7038d05ca
anon_subject_20,657a657ec1de517384e4122b,657b64991d7f071b8def3bd7,19,0.0-4.0-0.0,121900,7981,"<div style=""font-size:20px;""><p>Smashing a pumpkin using a wizard.</p></div>",9,18,Smashing a pumpkin using,smash a pumpkin using,Can you smash a pumpkin using,[NP] smashed a pumpkin using,a hammer,a brick,a leaf,a wizard,have,a number,tool,critical,html-keyboard-response,0.8497128487707678,impossible,impossible_magic,Smashing a pumpkin using a wizard.,session-657b659107af1
anon_subject_20,657a657ec1de517384e4122b,657b64991d7f071b8def3bd7,21,0.0-4.0-0.1,126474,3571,"<div style=""font-size:20px;""><p>Wiping a spill using a scarf.</p></div>",2,19,Wiping a spill using,wipe a spill using,Can you wipe a spill using,[NP] wiped a spill using,a tissue,a scarf,a piano,divination,make,sentences,tool,critical,html-keyboard-response,0.8497128487707678,improbable,improbable,Wiping a spill using a scarf.,session-657b659107af1
anon_subject_20,657a657ec1de517384e4122b,657b64991d7f071b8def3bd7,23,0.0-4.0-0.2,130995,3518,"<div style=""font-size:20px;""><p>Constructing a castle using follow.</p></div>",0,20,Constructing a castle using,construct a castle using,Can you construct a castle using,[NP] constructed a castle using,bricks,gems,a star,wizardry,follow,boredom,tool,critical,html-keyboard-response,0.8497128487707678,nonsense,inconceivable_syntactic,Constructing a castle using follow.,session-657b659107af1
anon_subject_20,657a657ec1de517384e4122b,657b64991d7f071b8def3bd7,25,0.0-4.0-0.3,133537,1539,"<div style=""font-size:20px;""><p>Drawing a picture using a smell.</p></div>",0,30,Drawing a picture using,draw a picture using,Can you draw a picture using,[NP] drew a picture using,a pencil,lipstick,a mountain,magic,always,a smell,tool,critical,html-keyboard-response,0.8497128487707678,nonsense,inconceivable_semantic,Drawing a picture using a smell.,session-657b659107af1
anon_subject_20,657a657ec1de517384e4122b,657b64991d7f071b8def3bd7,27,0.0-4.0-0.4,137078,2538,"<div style=""font-size:20px;""><p>Brewing coffee using glue.</p></div>",0,13,Brewing coffee using,brew coffee using,Can you brew coffee using,[NP] brewed coffee using,water,soda,glue,lightsabers,into,numbers,tool,critical,html-keyboard-response,0.8497128487707678,nonsense,impossible_physics,Brewing coffee using glue.,session-657b659107af1
anon_subject_20,657a657ec1de517384e4122b,657b64991d7f071b8def3bd7,29,0.0-4.0-0.5,140277,2196,"<div style=""font-size:20px;""><p>Docking a boat using greetings.</p></div>",0,16,Docking a boat using,dock a boat using,Can you dock a boat using,[NP] docked a boat using,an anchor,an anvil,a balloon,a dragon,forgive,greetings,tool,critical,html-keyboard-response,0.8497128487707678,nonsense,inconceivable_semantic,Docking a boat using greetings.,session-657b659107af1
anon_subject_20,657a657ec1de517384e4122b,657b64991d7f071b8def3bd7,31,0.0-4.0-0.6,143093,1813,"<div style=""font-size:20px;""><p>Cooking dinner out of thunder.</p></div>",0,11,Cooking dinner out of,cook dinner out of,Can you cook dinner out of,[NP] cooked dinner out of,pasta,clay,thunder,a potion,through,words,material,critical,html-keyboard-response,0.8497128487707678,nonsense,impossible_physics,Cooking dinner out of thunder.,session-657b659107af1
anon_subject_20,657a657ec1de517384e4122b,657b64991d7f071b8def3bd7,33,0.0-4.0-0.7,148782,4686,"<div style=""font-size:20px;""><p>Towing a car using a horse.</p></div>",2,22,Towing a car using,tow a car using,Can you tow a car using,[NP] towed a car using,a truck,a horse,a butterfly,aliens,then,freedom,tool,critical,html-keyboard-response,0.8497128487707678,improbable,improbable,Towing a car using a horse.,session-657b659107af1
anon_subject_20,657a657ec1de517384e4122b,657b64991d7f071b8def3bd7,35,0.0-4.0-0.8,151542,1758,"<div style=""font-size:20px;""><p>Using a telescope to look at the moon.</p></div>",1,3,Using a telescope to look at,use a telescope to look at,Can you use a telescope to look at,[NP] used a telescope to look at,the moon,the sun,a molecule,unicorns,of,a decade,object,critical,html-keyboard-response,0.8497128487707678,probable,probable,Using a telescope to look at the moon.,session-657b659107af1
anon_subject_20,657a657ec1de517384e4122b,657b64991d7f071b8def3bd7,37,0.0-4.0-0.9,154942,2397,"<div style=""font-size:20px;""><p>Carving a statue using began.</p></div>",0,2,Carving a statue using,carve a statue using,Can you carve a statue using,[NP] carved a statue using,a chisel,a toothpick,a valley,telekinesis,began,yesterday,tool,critical,html-keyboard-response,0.8497128487707678,nonsense,inconceivable_syntactic,Carving a statue using began.,session-657b659107af1
anon_subject_20,657a657ec1de517384e4122b,657b64991d7f071b8def3bd7,39,0.0-4.0-0.10,157877,1932,"<div style=""font-size:20px;""><p>Growing vegetables in soil.</p></div>",1,9,Growing vegetables in,grow vegetables in,Can you grow vegetables in,[NP] grew vegetables in,soil,sand,bleach,stardust,become,justice,material,critical,html-keyboard-response,0.8497128487707678,probable,probable,Growing vegetables in soil.,session-657b659107af1
anon_subject_20,657a657ec1de517384e4122b,657b64991d7f071b8def3bd7,41,0.0-4.0-0.11,160423,1543,"<div style=""font-size:20px;""><p>Chilling a drink using tomorrow.</p></div>",0,4,Chilling a drink using,chill a drink using,Can you chill a drink using,[NP] chilled a drink using,ice,snow,fire,pixies,at,tomorrow,tool,critical,html-keyboard-response,0.8497128487707678,nonsense,inconceivable_semantic,Chilling a drink using tomorrow.,session-657b659107af1
anon_subject_20,657a657ec1de517384e4122b,657b64991d7f071b8def3bd7,43,0.0-4.0-0.12,162750,1325,"<div style=""font-size:20px;""><p>Writing a letter using wind.</p></div>",0,10,Writing a letter using,write a letter using,Can you write a letter using,[NP] wrote a letter using,a pen,a toothbrush,wind,a wand,onto,time,tool,critical,html-keyboard-response,0.8497128487707678,nonsense,impossible_physics,Writing a letter using wind.,session-657b659107af1
anon_subject_20,657a657ec1de517384e4122b,657b64991d7f071b8def3bd7,45,0.0-4.0-0.13,165035,1281,"<div style=""font-size:20px;""><p>Constructing a tower using while.</p></div>",0,26,Constructing a tower using,construct a tower using,Can you construct a tower using,[NP] constructed a tower using,concrete,blocks,a lake,[POSS] mind,while,laughter,material,critical,html-keyboard-response,0.8497128487707678,nonsense,inconceivable_syntactic,Constructing a tower using while.,session-657b659107af1
anon_subject_20,657a657ec1de517384e4122b,657b64991d7f071b8def3bd7,47,0.0-4.0-0.14,168317,2279,"<div style=""font-size:20px;""><p>Building a bridge out of steel.</p></div>",1,24,Building a bridge out of,construct a bridge out of,Can you construct a bridge out of,[NP] constructed a bridge out of,steel,plastic,gas,ambrosia,from,truth,material,critical,html-keyboard-response,0.8497128487707678,probable,probable,Building a bridge out of steel.,session-657b659107af1
anon_subject_20,657a657ec1de517384e4122b,657b64991d7f071b8def3bd7,49,0.0-4.0-0.15,173119,3800,"<div style=""font-size:20px;""><p>Starting a fire using furniture.</p></div>",2,23,Starting a fire using,start a fire using,Can you start a fire using,[NP] started a fire using,kindling,furniture,milk,enchantments,sometimes,traffic,tool,critical,html-keyboard-response,0.8497128487707678,improbable,improbable,Starting a fire using furniture.,session-657b659107af1
anon_subject_20,657a657ec1de517384e4122b,657b64991d7f071b8def3bd7,51,0.0-4.0-0.16,176827,2706,"<div style=""font-size:20px;""><p>Flying a kite using lead.</p></div>",0,7,Flying a kite using,fly a kite using,Can you fly a kite using,[NP] flew a kite using,string,floss,lead,witchcraft,give,a sound,tool,critical,html-keyboard-response,0.8497128487707678,nonsense,impossible_physics,Flying a kite using lead.,session-657b659107af1
anon_subject_20,657a657ec1de517384e4122b,657b64991d7f071b8def3bd7,53,0.0-4.0-0.17,179073,1244,"<div style=""font-size:20px;""><p>Lighting a candle with years.</p></div>",0,21,Lighting a candle with,light a candle with,Can you light a candle with,[NP] lit a candle with,a match,a blowtorch,a pool,spells,choose,years,tool,critical,html-keyboard-response,0.8497128487707678,nonsense,inconceivable_semantic,Lighting a candle with years.,session-657b659107af1
anon_subject_20,657a657ec1de517384e4122b,657b64991d7f071b8def3bd7,55,0.0-4.0-0.18,184626,4550,"<div style=""font-size:20px;""><p>Washing your hair with air.</p></div>",9,28,Washing your hair with,wash your hair with,Can you wash your hair with,[NP] washed [POSS] hair with,shampoo,detergent,air,mermaids,though,minutes,tool,critical,html-keyboard-response,0.8497128487707678,impossible,impossible_physics,Washing your hair with air.,session-657b659107af1
anon_subject_20,657a657ec1de517384e4122b,657b64991d7f071b8def3bd7,57,0.0-4.0-0.19,189890,4262,"<div style=""font-size:20px;""><p>Taking a bath in tea.</p></div>",2,12,Taking a bath in,take a bath in,Can you take a bath in,[NP] took a bath in,bubbles,tea,light,crystals,without,language,material,critical,html-keyboard-response,0.8497128487707678,improbable,improbable,Taking a bath in tea.,session-657b659107af1
anon_subject_20,657a657ec1de517384e4122b,657b64991d7f071b8def3bd7,59,0.0-4.0-0.20,194646,3753,"<div style=""font-size:20px;""><p>Washing dishes using fairies.</p></div>",9,5,Washing dishes using,wash dishes using,Can you wash dishes using,[NP] washed dishes using,soap,rain,lightning,fairies,fell,arithmetic,tool,critical,html-keyboard-response,0.8497128487707678,impossible,impossible_magic,Washing dishes using fairies.,session-657b659107af1
anon_subject_20,657a657ec1de517384e4122b,657b64991d7f071b8def3bd7,61,0.0-4.0-0.21,197463,1815,"<div style=""font-size:20px;""><p>Painting a house using incantations.</p></div>",0,14,Painting a house using,paint a house using,Can you paint a house using,[NP] painted a house using,a brush,a mop,a planet,incantations,before,questions,tool,critical,html-keyboard-response,0.8497128487707678,nonsense,impossible_magic,Painting a house using incantations.,session-657b659107af1
anon_subject_20,657a657ec1de517384e4122b,657b64991d7f071b8def3bd7,63,0.0-4.0-0.22,200067,1601,"<div style=""font-size:20px;""><p>Building a robot out of metal.</p></div>",1,6,Building a robot out of,build a robot out of,Can you build a robot out of,[NP] built a robot out of,metal,plastic,soup,elixirs,with,honesty,material,critical,html-keyboard-response,0.8497128487707678,probable,probable,Building a robot out of metal.,session-657b659107af1
anon_subject_20,657a657ec1de517384e4122b,657b64991d7f071b8def3bd7,65,0.0-4.0-0.23,205174,4104,"<div style=""font-size:20px;""><p>Shoveling a driveway full of ogres.</p></div>",9,25,Shoveling a driveway full of,shovel a driveway full of,Can you shovel a driveway full of,[NP] shoveled a driveway full of,snow,ice,sunshine,ogres,except,rumors,material,critical,html-keyboard-response,0.8497128487707678,impossible,impossible_magic,Shoveling a driveway full of ogres.,session-657b659107af1
anon_subject_20,657a657ec1de517384e4122b,657b64991d7f071b8def3bd7,67,0.0-4.0-0.24,207759,1582,"<div style=""font-size:20px;""><p>Sealing a box using do.</p></div>",0,17,Sealing a box using,seal a box using,Can you seal a box using,[NP] sealed a box using,tape,magnets,wine,sorcery,do,jokes,tool,critical,html-keyboard-response,0.8497128487707678,nonsense,inconceivable_syntactic,Sealing a box using do.,session-657b659107af1
anon_subject_20,657a657ec1de517384e4122b,657b64991d7f071b8def3bd7,69,0.0-4.0-0.25,209968,1207,"<div style=""font-size:20px;""><p>Knitting a scarf using yarn.</p></div>",1,27,Knitting a scarf using,knit a scarf using,Can you knit a scarf using,[NP] knitted a scarf using,yarn,wire,lava,telepathy,for,sadness,material,critical,html-keyboard-response,0.8497128487707678,probable,probable,Knitting a scarf using yarn.,session-657b659107af1
anon_subject_20,657a657ec1de517384e4122b,657b64991d7f071b8def3bd7,71,0.0-4.0-0.26,212659,1688,"<div style=""font-size:20px;""><p>Crafting jewelry using alchemy.</p></div>",0,15,Crafting jewelry using,craft jewelry using,Can you craft jewelry using,[NP] crafted jewelry using,beads,leather,a volcano,alchemy,until,opinions,tool,critical,html-keyboard-response,0.8497128487707678,nonsense,impossible_magic,Crafting jewelry using alchemy.,session-657b659107af1
anon_subject_20,657a657ec1de517384e4122b,657b64991d7f071b8def3bd7,73,0.0-4.0-0.27,215099,1437,"<div style=""font-size:20px;""><p>Baking a cake using grasp.</p></div>",0,1,Baking a cake using,bake a cake using,Can you bake a cake using,[NP] baked a cake using,an oven,an airfryer,a refrigerator,superpowers,grasp,anger,tool,critical,html-keyboard-response,0.8497128487707678,nonsense,inconceivable_syntactic,Baking a cake using grasp.,session-657b659107af1
anon_subject_20,657a657ec1de517384e4122b,657b64991d7f071b8def3bd7,75,0.0-4.0-0.28,217425,1324,"<div style=""font-size:20px;""><p>Crafting a bowl out of friction.</p></div>",0,8,Crafting a bowl out of,craft a bowl out of,Can you craft a bowl out of,[NP] crafted a bowl out of,clay,mud,smoke,auras,forget,friction,material,critical,html-keyboard-response,0.8497128487707678,nonsense,inconceivable_semantic,Crafting a bowl out of friction.,session-657b659107af1
anon_subject_20,657a657ec1de517384e4122b,657b64991d7f071b8def3bd7,77,0.0-4.0-0.29,223128,4701,"<div style=""font-size:20px;""><p>Hiding a gift using a tarp.</p></div>",1,29,Hiding a gift using,hide a gift using,Can you hide a gift using,[NP] hid a gift using,a closet,a tarp,a cloud,invisibility,during,concepts,tool,critical,html-keyboard-response,0.8497128487707678,probable,improbable,Hiding a gift using a tarp.,session-657b659107af1
anon_subject_26,657a657ec1de517384e4122b,657b6c8aa294e4a98923a640,51,0.0-4.0-0.0,155364,4266,"<div style=""font-size:20px;""><p>Cooking dinner out of through.</p></div>",0,11,Cooking dinner out of,cook dinner out of,Can you cook dinner out of,[NP] cooked dinner out of,pasta,clay,thunder,a potion,through,words,material,critical,html-keyboard-response,0.40566567990647684,nonsense,inconceivable_syntactic,Cooking dinner out of through.,session-657b6d8fb3a0c
anon_subject_26,657a657ec1de517384e4122b,657b6c8aa294e4a98923a640,53,0.0-4.0-0.1,158840,2460,"<div style=""font-size:20px;""><p>Using a telescope to look at unicorns.</p></div>",9,3,Using a telescope to look at,use a telescope to look at,Can you use a telescope to look at,[NP] used a telescope to look at,the moon,the sun,a molecule,unicorns,of,a decade,object,critical,html-keyboard-response,0.40566567990647684,impossible,impossible_magic,Using a telescope to look at unicorns.,session-657b6d8fb3a0c
anon_subject_26,657a657ec1de517384e4122b,657b6c8aa294e4a98923a640,55,0.0-4.0-0.2,162789,2938,"<div style=""font-size:20px;""><p>Crafting a bowl out of friction.</p></div>",0,8,Crafting a bowl out of,craft a bowl out of,Can you craft a bowl out of,[NP] crafted a bowl out of,clay,mud,smoke,auras,forget,friction,material,critical,html-keyboard-response,0.40566567990647684,nonsense,inconceivable_semantic,Crafting a bowl out of friction.,session-657b6d8fb3a0c
anon_subject_26,657a657ec1de517384e4122b,657b6c8aa294e4a98923a640,57,0.0-4.0-0.3,165195,1354,"<div style=""font-size:20px;""><p>Taking a bath in without.</p></div>",0,12,Taking a bath in,take a bath in,Can you take a bath in,[NP] took a bath in,bubbles,tea,light,crystals,without,language,material,critical,html-keyboard-response,0.40566567990647684,nonsense,inconceivable_syntactic,Taking a bath in without.,session-657b6d8fb3a0c
anon_subject_26,657a657ec1de517384e4122b,657b6c8aa294e4a98923a640,59,0.0-4.0-0.4,167436,1231,"<div style=""font-size:20px;""><p>Starting a fire using sometimes.</p></div>",0,23,Starting a fire using,start a fire using,Can you start a fire using,[NP] started a fire using,kindling,furniture,milk,enchantments,sometimes,traffic,tool,critical,html-keyboard-response,0.40566567990647684,nonsense,inconceivable_syntactic,Starting a fire using sometimes.,session-657b6d8fb3a0c
anon_subject_26,657a657ec1de517384e4122b,657b6c8aa294e4a98923a640,61,0.0-4.0-0.5,170381,1937,"<div style=""font-size:20px;""><p>Towing a car using a butterfly.</p></div>",9,22,Towing a car using,tow a car using,Can you tow a car using,[NP] towed a car using,a truck,a horse,a butterfly,aliens,then,freedom,tool,critical,html-keyboard-response,0.40566567990647684,impossible,impossible_physics,Towing a car using a butterfly.,session-657b6d8fb3a0c
anon_subject_26,657a657ec1de517384e4122b,657b6c8aa294e4a98923a640,63,0.0-4.0-0.6,172758,1287,"<div style=""font-size:20px;""><p>Chilling a drink using tomorrow.</p></div>",0,4,Chilling a drink using,chill a drink using,Can you chill a drink using,[NP] chilled a drink using,ice,snow,fire,pixies,at,tomorrow,tool,critical,html-keyboard-response,0.40566567990647684,nonsense,inconceivable_semantic,Chilling a drink using tomorrow.,session-657b6d8fb3a0c
anon_subject_26,657a657ec1de517384e4122b,657b6c8aa294e4a98923a640,65,0.0-4.0-0.7,175502,1743,"<div style=""font-size:20px;""><p>Washing your hair with shampoo.</p></div>",1,28,Washing your hair with,wash your hair with,Can you wash your hair with,[NP] washed [POSS] hair with,shampoo,detergent,air,mermaids,though,minutes,tool,critical,html-keyboard-response,0.40566567990647684,probable,probable,Washing your hair with shampoo.,session-657b6d8fb3a0c
anon_subject_26,657a657ec1de517384e4122b,657b6c8aa294e4a98923a640,67,0.0-4.0-0.8,178146,1627,"<div style=""font-size:20px;""><p>Smashing a pumpkin using a hammer.</p></div>",1,18,Smashing a pumpkin using,smash a pumpkin using,Can you smash a pumpkin using,[NP] smashed a pumpkin using,a hammer,a brick,a leaf,a wizard,have,a number,tool,critical,html-keyboard-response,0.40566567990647684,probable,probable,Smashing a pumpkin using a hammer.,session-657b6d8fb3a0c
anon_subject_26,657a657ec1de517384e4122b,657b6c8aa294e4a98923a640,69,0.0-4.0-0.9,180793,1632,"<div style=""font-size:20px;""><p>Carving a statue using telekinesis.</p></div>",9,2,Carving a statue using,carve a statue using,Can you carve a statue using,[NP] carved a statue using,a chisel,a toothpick,a valley,telekinesis,began,yesterday,tool,critical,html-keyboard-response,0.40566567990647684,impossible,impossible_magic,Carving a statue using telekinesis.,session-657b6d8fb3a0c
anon_subject_26,657a657ec1de517384e4122b,657b6c8aa294e4a98923a640,71,0.0-4.0-0.10,184333,2526,"<div style=""font-size:20px;""><p>Crafting jewelry using leather.</p></div>",9,15,Crafting jewelry using,craft jewelry using,Can you craft jewelry using,[NP] crafted jewelry using,beads,leather,a volcano,alchemy,until,opinions,tool,critical,html-keyboard-response,0.40566567990647684,impossible,improbable,Crafting jewelry using leather.,session-657b6d8fb3a0c
anon_subject_26,657a657ec1de517384e4122b,657b6c8aa294e4a98923a640,73,0.0-4.0-0.11,190718,5371,"<div style=""font-size:20px;""><p>Hiding a gift using a cloud.</p></div>",9,29,Hiding a gift using,hide a gift using,Can you hide a gift using,[NP] hid a gift using,a closet,a tarp,a cloud,invisibility,during,concepts,tool,critical,html-keyboard-response,0.40566567990647684,impossible,impossible_physics,Hiding a gift using a cloud.,session-657b6d8fb3a0c
anon_subject_26,657a657ec1de517384e4122b,657b6c8aa294e4a98923a640,75,0.0-4.0-0.12,192807,1073,"<div style=""font-size:20px;""><p>Painting a house using a brush.</p></div>",1,14,Painting a house using,paint a house using,Can you paint a house using,[NP] painted a house using,a brush,a mop,a planet,incantations,before,questions,tool,critical,html-keyboard-response,0.40566567990647684,probable,probable,Painting a house using a brush.,session-657b6d8fb3a0c
anon_subject_26,657a657ec1de517384e4122b,657b6c8aa294e4a98923a640,77,0.0-4.0-0.13,195275,1453,"<div style=""font-size:20px;""><p>Constructing a tower using laughter.</p></div>",0,26,Constructing a tower using,construct a tower using,Can you construct a tower using,[NP] constructed a tower using,concrete,blocks,a lake,[POSS] mind,while,laughter,material,critical,html-keyboard-response,0.40566567990647684,nonsense,inconceivable_semantic,Constructing a tower using laughter.,session-657b6d8fb3a0c
anon_subject_26,657a657ec1de517384e4122b,657b6c8aa294e4a98923a640,79,0.0-4.0-0.14,197528,1240,"<div style=""font-size:20px;""><p>Knitting a scarf using telepathy.</p></div>",9,27,Knitting a scarf using,knit a scarf using,Can you knit a scarf using,[NP] knitted a scarf using,yarn,wire,lava,telepathy,for,sadness,material,critical,html-keyboard-response,0.40566567990647684,impossible,impossible_magic,Knitting a scarf using telepathy.,session-657b6d8fb3a0c
anon_subject_26,657a657ec1de517384e4122b,657b6c8aa294e4a98923a640,81,0.0-4.0-0.15,199499,955,"<div style=""font-size:20px;""><p>Washing dishes using fell.</p></div>",0,5,Washing dishes using,wash dishes using,Can you wash dishes using,[NP] washed dishes using,soap,rain,lightning,fairies,fell,arithmetic,tool,critical,html-keyboard-response,0.40566567990647684,nonsense,inconceivable_syntactic,Washing dishes using fell.,session-657b6d8fb3a0c
anon_subject_26,657a657ec1de517384e4122b,657b6c8aa294e4a98923a640,83,0.0-4.0-0.16,201868,1324,"<div style=""font-size:20px;""><p>Lighting a candle with years.</p></div>",0,21,Lighting a candle with,light a candle with,Can you light a candle with,[NP] lit a candle with,a match,a blowtorch,a pool,spells,choose,years,tool,critical,html-keyboard-response,0.40566567990647684,nonsense,inconceivable_semantic,Lighting a candle with years.,session-657b6d8fb3a0c
anon_subject_26,657a657ec1de517384e4122b,657b6c8aa294e4a98923a640,85,0.0-4.0-0.17,203736,862,"<div style=""font-size:20px;""><p>Growing vegetables in stardust.</p></div>",0,9,Growing vegetables in,grow vegetables in,Can you grow vegetables in,[NP] grew vegetables in,soil,sand,bleach,stardust,become,justice,material,critical,html-keyboard-response,0.40566567990647684,nonsense,impossible_magic,Growing vegetables in stardust.,session-657b6d8fb3a0c
anon_subject_26,657a657ec1de517384e4122b,657b6c8aa294e4a98923a640,87,0.0-4.0-0.18,206530,1787,"<div style=""font-size:20px;""><p>Building a robot out of honesty.</p></div>",0,6,Building a robot out of,build a robot out of,Can you build a robot out of,[NP] built a robot out of,metal,plastic,soup,elixirs,with,honesty,material,critical,html-keyboard-response,0.40566567990647684,nonsense,inconceivable_semantic,Building a robot out of honesty.,session-657b6d8fb3a0c
anon_subject_26,657a657ec1de517384e4122b,657b6c8aa294e4a98923a640,89,0.0-4.0-0.19,209394,1849,"<div style=""font-size:20px;""><p>Docking a boat using a balloon.</p></div>",2,16,Docking a boat using,dock a boat using,Can you dock a boat using,[NP] docked a boat using,an anchor,an anvil,a balloon,a dragon,forgive,greetings,tool,critical,html-keyboard-response,0.40566567990647684,improbable,impossible_physics,Docking a boat using a balloon.,session-657b6d8fb3a0c
anon_subject_26,657a657ec1de517384e4122b,657b6c8aa294e4a98923a640,91,0.0-4.0-0.20,212047,1637,"<div style=""font-size:20px;""><p>Flying a kite using string.</p></div>",1,7,Flying a kite using,fly a kite using,Can you fly a kite using,[NP] flew a kite using,string,floss,lead,witchcraft,give,a sound,tool,critical,html-keyboard-response,0.40566567990647684,probable,probable,Flying a kite using string.,session-657b6d8fb3a0c
anon_subject_26,657a657ec1de517384e4122b,657b6c8aa294e4a98923a640,93,0.0-4.0-0.21,215870,2807,"<div style=""font-size:20px;""><p>Constructing a castle using gems.</p></div>",2,20,Constructing a castle using,construct a castle using,Can you construct a castle using,[NP] constructed a castle using,bricks,gems,a star,wizardry,follow,boredom,tool,critical,html-keyboard-response,0.40566567990647684,improbable,improbable,Constructing a castle using gems.,session-657b6d8fb3a0c
anon_subject_26,657a657ec1de517384e4122b,657b6c8aa294e4a98923a640,95,0.0-4.0-0.22,220058,3172,"<div style=""font-size:20px;""><p>Brewing coffee using glue.</p></div>",9,13,Brewing coffee using,brew coffee using,Can you brew coffee using,[NP] brewed coffee using,water,soda,glue,lightsabers,into,numbers,tool,critical,html-keyboard-response,0.40566567990647684,impossible,impossible_physics,Brewing coffee using glue.,session-657b6d8fb3a0c
anon_subject_26,657a657ec1de517384e4122b,657b6c8aa294e4a98923a640,97,0.0-4.0-0.23,222655,1588,"<div style=""font-size:20px;""><p>Sealing a box using magnets.</p></div>",1,17,Sealing a box using,seal a box using,Can you seal a box using,[NP] sealed a box using,tape,magnets,wine,sorcery,do,jokes,tool,critical,html-keyboard-response,0.40566567990647684,probable,improbable,Sealing a box using magnets.,session-657b6d8fb3a0c
anon_subject_26,657a657ec1de517384e4122b,657b6c8aa294e4a98923a640,99,0.0-4.0-0.24,225569,1898,"<div style=""font-size:20px;""><p>Building a bridge out of ambrosia.</p></div>",2,24,Building a bridge out of,construct a bridge out of,Can you construct a bridge out of,[NP] constructed a bridge out of,steel,plastic,gas,ambrosia,from,truth,material,critical,html-keyboard-response,0.40566567990647684,improbable,impossible_magic,Building a bridge out of ambrosia.,session-657b6d8fb3a0c
anon_subject_26,657a657ec1de517384e4122b,657b6c8aa294e4a98923a640,101,0.0-4.0-0.25,228733,2155,"<div style=""font-size:20px;""><p>Drawing a picture using lipstick.</p></div>",1,30,Drawing a picture using,draw a picture using,Can you draw a picture using,[NP] drew a picture using,a pencil,lipstick,a mountain,magic,always,a smell,tool,critical,html-keyboard-response,0.40566567990647684,probable,improbable,Drawing a picture using lipstick.,session-657b6d8fb3a0c
anon_subject_26,657a657ec1de517384e4122b,657b6c8aa294e4a98923a640,103,0.0-4.0-0.26,231964,2214,"<div style=""font-size:20px;""><p>Baking a cake using an airfryer.</p></div>",1,1,Baking a cake using,bake a cake using,Can you bake a cake using,[NP] baked a cake using,an oven,an airfryer,a refrigerator,superpowers,grasp,anger,tool,critical,html-keyboard-response,0.40566567990647684,probable,improbable,Baking a cake using an airfryer.,session-657b6d8fb3a0c
anon_subject_26,657a657ec1de517384e4122b,657b6c8aa294e4a98923a640,105,0.0-4.0-0.27,234301,1335,"<div style=""font-size:20px;""><p>Writing a letter using wind.</p></div>",0,10,Writing a letter using,write a letter using,Can you write a letter using,[NP] wrote a letter using,a pen,a toothbrush,wind,a wand,onto,time,tool,critical,html-keyboard-response,0.40566567990647684,nonsense,impossible_physics,Writing a letter using wind.,session-657b6d8fb3a0c
anon_subject_26,657a657ec1de517384e4122b,657b6c8aa294e4a98923a640,107,0.0-4.0-0.28,237327,2017,"<div style=""font-size:20px;""><p>Wiping a spill using a tissue.</p></div>",1,19,Wiping a spill using,wipe a spill using,Can you wipe a spill using,[NP] wiped a spill using,a tissue,a scarf,a piano,divination,make,sentences,tool,critical,html-keyboard-response,0.40566567990647684,probable,probable,Wiping a spill using a tissue.,session-657b6d8fb3a0c
anon_subject_26,657a657ec1de517384e4122b,657b6c8aa294e4a98923a640,109,0.0-4.0-0.29,240083,1738,"<div style=""font-size:20px;""><p>Shoveling a driveway full of except.</p></div>",0,25,Shoveling a driveway full of,shovel a driveway full of,Can you shovel a driveway full of,[NP] shoveled a driveway full of,snow,ice,sunshine,ogres,except,rumors,material,critical,html-keyboard-response,0.40566567990647684,nonsense,inconceivable_syntactic,Shoveling a driveway full of except.,session-657b6d8fb3a0c
anon_subject_2,657a657ec1de517384e4122b,657b6a54d45e2a51913ca342,11,0.0-4.0-0.0,48049,3263,"<div style=""font-size:20px;""><p>Knitting a scarf using yarn.</p></div>",1,27,Knitting a scarf using,knit a scarf using,Can you knit a scarf using,[NP] knitted a scarf using,yarn,wire,lava,telepathy,for,sadness,material,critical,html-keyboard-response,0.6311075746126404,probable,probable,Knitting a scarf using yarn.,session-657b6b03d8b78
anon_subject_2,657a657ec1de517384e4122b,657b6a54d45e2a51913ca342,13,0.0-4.0-0.1,51459,2399,"<div style=""font-size:20px;""><p>Shoveling a driveway full of rumors.</p></div>",0,25,Shoveling a driveway full of,shovel a driveway full of,Can you shovel a driveway full of,[NP] shoveled a driveway full of,snow,ice,sunshine,ogres,except,rumors,material,critical,html-keyboard-response,0.6311075746126404,nonsense,inconceivable_semantic,Shoveling a driveway full of rumors.,session-657b6b03d8b78
anon_subject_2,657a657ec1de517384e4122b,657b6a54d45e2a51913ca342,15,0.0-4.0-0.2,54035,1565,"<div style=""font-size:20px;""><p>Starting a fire using kindling.</p></div>",1,23,Starting a fire using,start a fire using,Can you start a fire using,[NP] started a fire using,kindling,furniture,milk,enchantments,sometimes,traffic,tool,critical,html-keyboard-response,0.6311075746126404,probable,probable,Starting a fire using kindling.,session-657b6b03d8b78
anon_subject_2,657a657ec1de517384e4122b,657b6a54d45e2a51913ca342,17,0.0-4.0-0.3,57075,2030,"<div style=""font-size:20px;""><p>Hiding a gift using a cloud.</p></div>",0,29,Hiding a gift using,hide a gift using,Can you hide a gift using,[NP] hid a gift using,a closet,a tarp,a cloud,invisibility,during,concepts,tool,critical,html-keyboard-response,0.6311075746126404,nonsense,impossible_physics,Hiding a gift using a cloud.,session-657b6b03d8b78
anon_subject_2,657a657ec1de517384e4122b,657b6a54d45e2a51913ca342,19,0.0-4.0-0.4,62038,3959,"<div style=""font-size:20px;""><p>Carving a statue using a toothpick.</p></div>",9,2,Carving a statue using,carve a statue using,Can you carve a statue using,[NP] carved a statue using,a chisel,a toothpick,a valley,telekinesis,began,yesterday,tool,critical,html-keyboard-response,0.6311075746126404,impossible,improbable,Carving a statue using a toothpick.,session-657b6b03d8b78
anon_subject_2,657a657ec1de517384e4122b,657b6a54d45e2a51913ca342,21,0.0-4.0-0.5,64531,1481,"<div style=""font-size:20px;""><p>Drawing a picture using always.</p></div>",0,30,Drawing a picture using,draw a picture using,Can you draw a picture using,[NP] drew a picture using,a pencil,lipstick,a mountain,magic,always,a smell,tool,critical,html-keyboard-response,0.6311075746126404,nonsense,inconceivable_syntactic,Drawing a picture using always.,session-657b6b03d8b78
anon_subject_2,657a657ec1de517384e4122b,657b6a54d45e2a51913ca342,23,0.0-4.0-0.6,68609,3061,"<div style=""font-size:20px;""><p>Growing vegetables in bleach.</p></div>",2,9,Growing vegetables in,grow vegetables in,Can you grow vegetables in,[NP] grew vegetables in,soil,sand,bleach,stardust,become,justice,material,critical,html-keyboard-response,0.6311075746126404,improbable,impossible_physics,Growing vegetables in bleach.,session-657b6b03d8b78
anon_subject_2,657a657ec1de517384e4122b,657b6a54d45e2a51913ca342,25,0.0-4.0-0.7,72390,2773,"<div style=""font-size:20px;""><p>Washing your hair with mermaids.</p></div>",9,28,Washing your hair with,wash your hair with,Can you wash your hair with,[NP] washed [POSS] hair with,shampoo,detergent,air,mermaids,though,minutes,tool,critical,html-keyboard-response,0.6311075746126404,impossible,impossible_magic,Washing your hair with mermaids.,session-657b6b03d8b78
anon_subject_2,657a657ec1de517384e4122b,657b6a54d45e2a51913ca342,27,0.0-4.0-0.8,77969,4569,"<div style=""font-size:20px;""><p>Painting a house using incantations.</p></div>",9,14,Painting a house using,paint a house using,Can you paint a house using,[NP] painted a house using,a brush,a mop,a planet,incantations,before,questions,tool,critical,html-keyboard-response,0.6311075746126404,impossible,impossible_magic,Painting a house using incantations.,session-657b6b03d8b78
anon_subject_2,657a657ec1de517384e4122b,657b6a54d45e2a51913ca342,29,0.0-4.0-0.9,81987,3011,"<div style=""font-size:20px;""><p>Building a robot out of soup.</p></div>",0,6,Building a robot out of,build a robot out of,Can you build a robot out of,[NP] built a robot out of,metal,plastic,soup,elixirs,with,honesty,material,critical,html-keyboard-response,0.6311075746126404,nonsense,impossible_physics,Building a robot out of soup.,session-657b6b03d8b78
anon_subject_2,657a657ec1de517384e4122b,657b6a54d45e2a51913ca342,31,0.0-4.0-0.10,85379,2386,"<div style=""font-size:20px;""><p>Baking a cake using anger.</p></div>",0,1,Baking a cake using,bake a cake using,Can you bake a cake using,[NP] baked a cake using,an oven,an airfryer,a refrigerator,superpowers,grasp,anger,tool,critical,html-keyboard-response,0.6311075746126404,nonsense,inconceivable_semantic,Baking a cake using anger.,session-657b6b03d8b78
anon_subject_2,657a657ec1de517384e4122b,657b6a54d45e2a51913ca342,33,0.0-4.0-0.11,89043,2648,"<div style=""font-size:20px;""><p>Crafting jewelry using opinions.</p></div>",0,15,Crafting jewelry using,craft jewelry using,Can you craft jewelry using,[NP] crafted jewelry using,beads,leather,a volcano,alchemy,until,opinions,tool,critical,html-keyboard-response,0.6311075746126404,nonsense,inconceivable_semantic,Crafting jewelry using opinions.,session-657b6b03d8b78
anon_subject_2,657a657ec1de517384e4122b,657b6a54d45e2a51913ca342,35,0.0-4.0-0.12,92611,2559,"<div style=""font-size:20px;""><p>Taking a bath in without.</p></div>",0,12,Taking a bath in,take a bath in,Can you take a bath in,[NP] took a bath in,bubbles,tea,light,crystals,without,language,material,critical,html-keyboard-response,0.6311075746126404,nonsense,inconceivable_syntactic,Taking a bath in without.,session-657b6b03d8b78
anon_subject_2,657a657ec1de517384e4122b,657b6a54d45e2a51913ca342,37,0.0-4.0-0.13,97460,3835,"<div style=""font-size:20px;""><p>Sealing a box using wine.</p></div>",9,17,Sealing a box using,seal a box using,Can you seal a box using,[NP] sealed a box using,tape,magnets,wine,sorcery,do,jokes,tool,critical,html-keyboard-response,0.6311075746126404,impossible,impossible_physics,Sealing a box using wine.,session-657b6b03d8b78
anon_subject_2,657a657ec1de517384e4122b,657b6a54d45e2a51913ca342,39,0.0-4.0-0.14,101890,3423,"<div style=""font-size:20px;""><p>Writing a letter using a toothbrush.</p></div>",9,10,Writing a letter using,write a letter using,Can you write a letter using,[NP] wrote a letter using,a pen,a toothbrush,wind,a wand,onto,time,tool,critical,html-keyboard-response,0.6311075746126404,impossible,improbable,Writing a letter using a toothbrush.,session-657b6b03d8b78
anon_subject_2,657a657ec1de517384e4122b,657b6a54d45e2a51913ca342,41,0.0-4.0-0.15,104450,1547,"<div style=""font-size:20px;""><p>Building a bridge out of steel.</p></div>",1,24,Building a bridge out of,construct a bridge out of,Can you construct a bridge out of,[NP] constructed a bridge out of,steel,plastic,gas,ambrosia,from,truth,material,critical,html-keyboard-response,0.6311075746126404,probable,probable,Building a bridge out of steel.,session-657b6b03d8b78
anon_subject_2,657a657ec1de517384e4122b,657b6a54d45e2a51913ca342,43,0.0-4.0-0.16,107650,2190,"<div style=""font-size:20px;""><p>Crafting a bowl out of smoke.</p></div>",9,8,Crafting a bowl out of,craft a bowl out of,Can you craft a bowl out of,[NP] crafted a bowl out of,clay,mud,smoke,auras,forget,friction,material,critical,html-keyboard-response,0.6311075746126404,impossible,impossible_physics,Crafting a bowl out of smoke.,session-657b6b03d8b78
anon_subject_2,657a657ec1de517384e4122b,657b6a54d45e2a51913ca342,45,0.0-4.0-0.17,110417,1752,"<div style=""font-size:20px;""><p>Brewing coffee using numbers.</p></div>",9,13,Brewing coffee using,brew coffee using,Can you brew coffee using,[NP] brewed coffee using,water,soda,glue,lightsabers,into,numbers,tool,critical,html-keyboard-response,0.6311075746126404,impossible,inconceivable_semantic,Brewing coffee using numbers.,session-657b6b03d8b78
anon_subject_2,657a657ec1de517384e4122b,657b6a54d45e2a51913ca342,47,0.0-4.0-0.18,113906,2477,"<div style=""font-size:20px;""><p>Chilling a drink using at.</p></div>",0,4,Chilling a drink using,chill a drink using,Can you chill a drink using,[NP] chilled a drink using,ice,snow,fire,pixies,at,tomorrow,tool,critical,html-keyboard-response,0.6311075746126404,nonsense,inconceivable_syntactic,Chilling a drink using at.,session-657b6b03d8b78
anon_subject_2,657a657ec1de517384e4122b,657b6a54d45e2a51913ca342,49,0.0-4.0-0.19,117666,2744,"<div style=""font-size:20px;""><p>Constructing a castle using gems.</p></div>",2,20,Constructing a castle using,construct a castle using,Can you construct a castle using,[NP] constructed a castle using,bricks,gems,a star,wizardry,follow,boredom,tool,critical,html-keyboard-response,0.6311075746126404,improbable,improbable,Constructing a castle using gems.,session-657b6b03d8b78
anon_subject_2,657a657ec1de517384e4122b,657b6a54d45e2a51913ca342,51,0.0-4.0-0.20,120321,1651,"<div style=""font-size:20px;""><p>Washing dishes using fairies.</p></div>",9,5,Washing dishes using,wash dishes using,Can you wash dishes using,[NP] washed dishes using,soap,rain,lightning,fairies,fell,arithmetic,tool,critical,html-keyboard-response,0.6311075746126404,impossible,impossible_magic,Washing dishes using fairies.,session-657b6b03d8b78
anon_subject_2,657a657ec1de517384e4122b,657b6a54d45e2a51913ca342,53,0.0-4.0-0.21,122851,1524,"<div style=""font-size:20px;""><p>Flying a kite using string.</p></div>",1,7,Flying a kite using,fly a kite using,Can you fly a kite using,[NP] flew a kite using,string,floss,lead,witchcraft,give,a sound,tool,critical,html-keyboard-response,0.6311075746126404,probable,probable,Flying a kite using string.,session-657b6b03d8b78
anon_subject_2,657a657ec1de517384e4122b,657b6a54d45e2a51913ca342,55,0.0-4.0-0.22,126673,2815,"<div style=""font-size:20px;""><p>Smashing a pumpkin using a wizard.</p></div>",9,18,Smashing a pumpkin using,smash a pumpkin using,Can you smash a pumpkin using,[NP] smashed a pumpkin using,a hammer,a brick,a leaf,a wizard,have,a number,tool,critical,html-keyboard-response,0.6311075746126404,impossible,impossible_magic,Smashing a pumpkin using a wizard.,session-657b6b03d8b78
anon_subject_2,657a657ec1de517384e4122b,657b6a54d45e2a51913ca342,57,0.0-4.0-0.23,129538,1850,"<div style=""font-size:20px;""><p>Lighting a candle with a blowtorch.</p></div>",1,21,Lighting a candle with,light a candle with,Can you light a candle with,[NP] lit a candle with,a match,a blowtorch,a pool,spells,choose,years,tool,critical,html-keyboard-response,0.6311075746126404,probable,improbable,Lighting a candle with a blowtorch.,session-657b6b03d8b78
anon_subject_2,657a657ec1de517384e4122b,657b6a54d45e2a51913ca342,59,0.0-4.0-0.24,133346,2793,"<div style=""font-size:20px;""><p>Using a telescope to look at of.</p></div>",0,3,Using a telescope to look at,use a telescope to look at,Can you use a telescope to look at,[NP] used a telescope to look at,the moon,the sun,a molecule,unicorns,of,a decade,object,critical,html-keyboard-response,0.6311075746126404,nonsense,inconceivable_syntactic,Using a telescope to look at of.,session-657b6b03d8b78
anon_subject_2,657a657ec1de517384e4122b,657b6a54d45e2a51913ca342,61,0.0-4.0-0.25,136067,1710,"<div style=""font-size:20px;""><p>Docking a boat using forgive.</p></div>",0,16,Docking a boat using,dock a boat using,Can you dock a boat using,[NP] docked a boat using,an anchor,an anvil,a balloon,a dragon,forgive,greetings,tool,critical,html-keyboard-response,0.6311075746126404,nonsense,inconceivable_syntactic,Docking a boat using forgive.,session-657b6b03d8b78
anon_subject_2,657a657ec1de517384e4122b,657b6a54d45e2a51913ca342,63,0.0-4.0-0.26,139475,2396,"<div style=""font-size:20px;""><p>Wiping a spill using a tissue.</p></div>",1,19,Wiping a spill using,wipe a spill using,Can you wipe a spill using,[NP] wiped a spill using,a tissue,a scarf,a piano,divination,make,sentences,tool,critical,html-keyboard-response,0.6311075746126404,probable,probable,Wiping a spill using a tissue.,session-657b6b03d8b78
anon_subject_2,657a657ec1de517384e4122b,657b6a54d45e2a51913ca342,65,0.0-4.0-0.27,142242,1757,"<div style=""font-size:20px;""><p>Cooking dinner out of a potion.</p></div>",9,11,Cooking dinner out of,cook dinner out of,Can you cook dinner out of,[NP] cooked dinner out of,pasta,clay,thunder,a potion,through,words,material,critical,html-keyboard-response,0.6311075746126404,impossible,impossible_magic,Cooking dinner out of a potion.,session-657b6b03d8b78
anon_subject_2,657a657ec1de517384e4122b,657b6a54d45e2a51913ca342,67,0.0-4.0-0.28,145460,2205,"<div style=""font-size:20px;""><p>Towing a car using freedom.</p></div>",0,22,Towing a car using,tow a car using,Can you tow a car using,[NP] towed a car using,a truck,a horse,a butterfly,aliens,then,freedom,tool,critical,html-keyboard-response,0.6311075746126404,nonsense,inconceivable_semantic,Towing a car using freedom.,session-657b6b03d8b78
anon_subject_2,657a657ec1de517384e4122b,657b6a54d45e2a51913ca342,69,0.0-4.0-0.29,148067,1593,"<div style=""font-size:20px;""><p>Constructing a tower using blocks.</p></div>",1,26,Constructing a tower using,construct a tower using,Can you construct a tower using,[NP] constructed a tower using,concrete,blocks,a lake,[POSS] mind,while,laughter,material,critical,html-keyboard-response,0.6311075746126404,probable,improbable,Constructing a tower using blocks.,session-657b6b03d8b78
anon_subject_13,657a657ec1de517384e4122b,657b65772874925cfb6162a5,35,0.0-4.0-0.0,113802,3520,"<div style=""font-size:20px;""><p>Cooking dinner out of pasta.</p></div>",0,11,Cooking dinner out of,cook dinner out of,Can you cook dinner out of,[NP] cooked dinner out of,pasta,clay,thunder,a potion,through,words,material,critical,html-keyboard-response,0.06935807129827865,nonsense,probable,Cooking dinner out of pasta.,session-657b666f46900
anon_subject_13,657a657ec1de517384e4122b,657b65772874925cfb6162a5,37,0.0-4.0-0.1,116695,1887,"<div style=""font-size:20px;""><p>Sealing a box using magnets.</p></div>",1,17,Sealing a box using,seal a box using,Can you seal a box using,[NP] sealed a box using,tape,magnets,wine,sorcery,do,jokes,tool,critical,html-keyboard-response,0.06935807129827865,probable,improbable,Sealing a box using magnets.,session-657b666f46900
anon_subject_13,657a657ec1de517384e4122b,657b65772874925cfb6162a5,39,0.0-4.0-0.2,119190,1490,"<div style=""font-size:20px;""><p>Smashing a pumpkin using a brick.</p></div>",1,18,Smashing a pumpkin using,smash a pumpkin using,Can you smash a pumpkin using,[NP] smashed a pumpkin using,a hammer,a brick,a leaf,a wizard,have,a number,tool,critical,html-keyboard-response,0.06935807129827865,probable,improbable,Smashing a pumpkin using a brick.,session-657b666f46900
anon_subject_13,657a657ec1de517384e4122b,657b65772874925cfb6162a5,41,0.0-4.0-0.3,121191,997,"<div style=""font-size:20px;""><p>Taking a bath in tea.</p></div>",2,12,Taking a bath in,take a bath in,Can you take a bath in,[NP] took a bath in,bubbles,tea,light,crystals,without,language,material,critical,html-keyboard-response,0.06935807129827865,improbable,improbable,Taking a bath in tea.,session-657b666f46900
anon_subject_13,657a657ec1de517384e4122b,657b65772874925cfb6162a5,43,0.0-4.0-0.4,123450,1253,"<div style=""font-size:20px;""><p>Towing a car using then.</p></div>",0,22,Towing a car using,tow a car using,Can you tow a car using,[NP] towed a car using,a truck,a horse,a butterfly,aliens,then,freedom,tool,critical,html-keyboard-response,0.06935807129827865,nonsense,inconceivable_syntactic,Towing a car using then.,session-657b666f46900
anon_subject_13,657a657ec1de517384e4122b,657b65772874925cfb6162a5,45,0.0-4.0-0.5,125518,1063,"<div style=""font-size:20px;""><p>Hiding a gift using during.</p></div>",0,29,Hiding a gift using,hide a gift using,Can you hide a gift using,[NP] hid a gift using,a closet,a tarp,a cloud,invisibility,during,concepts,tool,critical,html-keyboard-response,0.06935807129827865,nonsense,inconceivable_syntactic,Hiding a gift using during.,session-657b666f46900
anon_subject_13,657a657ec1de517384e4122b,657b65772874925cfb6162a5,47,0.0-4.0-0.6,144421,17899,"<div style=""font-size:20px;""><p>Lighting a candle with a pool.</p></div>",0,21,Lighting a candle with,light a candle with,Can you light a candle with,[NP] lit a candle with,a match,a blowtorch,a pool,spells,choose,years,tool,critical,html-keyboard-response,0.06935807129827865,nonsense,impossible_physics,Lighting a candle with a pool.,session-657b666f46900
anon_subject_13,657a657ec1de517384e4122b,657b65772874925cfb6162a5,49,0.0-4.0-0.7,147534,2108,"<div style=""font-size:20px;""><p>Writing a letter using wind.</p></div>",9,10,Writing a letter using,write a letter using,Can you write a letter using,[NP] wrote a letter using,a pen,a toothbrush,wind,a wand,onto,time,tool,critical,html-keyboard-response,0.06935807129827865,impossible,impossible_physics,Writing a letter using wind.,session-657b666f46900
anon_subject_13,657a657ec1de517384e4122b,657b65772874925cfb6162a5,51,0.0-4.0-0.8,150693,2154,"<div style=""font-size:20px;""><p>Shoveling a driveway full of rumors.</p></div>",0,25,Shoveling a driveway full of,shovel a driveway full of,Can you shovel a driveway full of,[NP] shoveled a driveway full of,snow,ice,sunshine,ogres,except,rumors,material,critical,html-keyboard-response,0.06935807129827865,nonsense,inconceivable_semantic,Shoveling a driveway full of rumors.,session-657b666f46900
anon_subject_13,657a657ec1de517384e4122b,657b65772874925cfb6162a5,53,0.0-4.0-0.9,154525,2828,"<div style=""font-size:20px;""><p>Washing dishes using fell.</p></div>",0,5,Washing dishes using,wash dishes using,Can you wash dishes using,[NP] washed dishes using,soap,rain,lightning,fairies,fell,arithmetic,tool,critical,html-keyboard-response,0.06935807129827865,nonsense,inconceivable_syntactic,Washing dishes using fell.,session-657b666f46900
anon_subject_13,657a657ec1de517384e4122b,657b65772874925cfb6162a5,55,0.0-4.0-0.10,157942,2413,"<div style=""font-size:20px;""><p>Growing vegetables in stardust.</p></div>",0,9,Growing vegetables in,grow vegetables in,Can you grow vegetables in,[NP] grew vegetables in,soil,sand,bleach,stardust,become,justice,material,critical,html-keyboard-response,0.06935807129827865,nonsense,impossible_magic,Growing vegetables in stardust.,session-657b666f46900
anon_subject_13,657a657ec1de517384e4122b,657b65772874925cfb6162a5,57,0.0-4.0-0.11,161642,2695,"<div style=""font-size:20px;""><p>Flying a kite using string.</p></div>",1,7,Flying a kite using,fly a kite using,Can you fly a kite using,[NP] flew a kite using,string,floss,lead,witchcraft,give,a sound,tool,critical,html-keyboard-response,0.06935807129827865,probable,probable,Flying a kite using string.,session-657b666f46900
anon_subject_13,657a657ec1de517384e4122b,657b65772874925cfb6162a5,59,0.0-4.0-0.12,164232,1586,"<div style=""font-size:20px;""><p>Building a bridge out of steel.</p></div>",1,24,Building a bridge out of,construct a bridge out of,Can you construct a bridge out of,[NP] constructed a bridge out of,steel,plastic,gas,ambrosia,from,truth,material,critical,html-keyboard-response,0.06935807129827865,probable,probable,Building a bridge out of steel.,session-657b666f46900
anon_subject_13,657a657ec1de517384e4122b,657b65772874925cfb6162a5,61,0.0-4.0-0.13,168350,3113,"<div style=""font-size:20px;""><p>Constructing a castle using a star.</p></div>",9,20,Constructing a castle using,construct a castle using,Can you construct a castle using,[NP] constructed a castle using,bricks,gems,a star,wizardry,follow,boredom,tool,critical,html-keyboard-response,0.06935807129827865,impossible,impossible_physics,Constructing a castle using a star.,session-657b666f46900
anon_subject_13,657a657ec1de517384e4122b,657b65772874925cfb6162a5,63,0.0-4.0-0.14,170322,967,"<div style=""font-size:20px;""><p>Brewing coffee using numbers.</p></div>",0,13,Brewing coffee using,brew coffee using,Can you brew coffee using,[NP] brewed coffee using,water,soda,glue,lightsabers,into,numbers,tool,critical,html-keyboard-response,0.06935807129827865,nonsense,inconceivable_semantic,Brewing coffee using numbers.,session-657b666f46900
anon_subject_13,657a657ec1de517384e4122b,657b65772874925cfb6162a5,65,0.0-4.0-0.15,172940,1613,"<div style=""font-size:20px;""><p>Knitting a scarf using wire.</p></div>",2,27,Knitting a scarf using,knit a scarf using,Can you knit a scarf using,[NP] knitted a scarf using,yarn,wire,lava,telepathy,for,sadness,material,critical,html-keyboard-response,0.06935807129827865,improbable,improbable,Knitting a scarf using wire.,session-657b666f46900
anon_subject_13,657a657ec1de517384e4122b,657b65772874925cfb6162a5,67,0.0-4.0-0.16,175672,1728,"<div style=""font-size:20px;""><p>Painting a house using incantations.</p></div>",9,14,Painting a house using,paint a house using,Can you paint a house using,[NP] painted a house using,a brush,a mop,a planet,incantations,before,questions,tool,critical,html-keyboard-response,0.06935807129827865,impossible,impossible_magic,Painting a house using incantations.,session-657b666f46900
anon_subject_13,657a657ec1de517384e4122b,657b65772874925cfb6162a5,69,0.0-4.0-0.17,179292,2616,"<div style=""font-size:20px;""><p>Using a telescope to look at a decade.</p></div>",0,3,Using a telescope to look at,use a telescope to look at,Can you use a telescope to look at,[NP] used a telescope to look at,the moon,the sun,a molecule,unicorns,of,a decade,object,critical,html-keyboard-response,0.06935807129827865,nonsense,inconceivable_semantic,Using a telescope to look at a decade.,session-657b666f46900
anon_subject_13,657a657ec1de517384e4122b,657b65772874925cfb6162a5,71,0.0-4.0-0.18,185027,4730,"<div style=""font-size:20px;""><p>Crafting a bowl out of auras.</p></div>",9,8,Crafting a bowl out of,craft a bowl out of,Can you craft a bowl out of,[NP] crafted a bowl out of,clay,mud,smoke,auras,forget,friction,material,critical,html-keyboard-response,0.06935807129827865,impossible,impossible_magic,Crafting a bowl out of auras.,session-657b666f46900
anon_subject_13,657a657ec1de517384e4122b,657b65772874925cfb6162a5,73,0.0-4.0-0.19,186702,670,"<div style=""font-size:20px;""><p>Docking a boat using a balloon.</p></div>",1,16,Docking a boat using,dock a boat using,Can you dock a boat using,[NP] docked a boat using,an anchor,an anvil,a balloon,a dragon,forgive,greetings,tool,critical,html-keyboard-response,0.06935807129827865,probable,impossible_physics,Docking a boat using a balloon.,session-657b666f46900
anon_subject_13,657a657ec1de517384e4122b,657b65772874925cfb6162a5,75,0.0-4.0-0.20,189240,1534,"<div style=""font-size:20px;""><p>Drawing a picture using always.</p></div>",0,30,Drawing a picture using,draw a picture using,Can you draw a picture using,[NP] drew a picture using,a pencil,lipstick,a mountain,magic,always,a smell,tool,critical,html-keyboard-response,0.06935807129827865,nonsense,inconceivable_syntactic,Drawing a picture using always.,session-657b666f46900
anon_subject_13,657a657ec1de517384e4122b,657b65772874925cfb6162a5,77,0.0-4.0-0.21,195016,4770,"<div style=""font-size:20px;""><p>Carving a statue using a valley.</p></div>",9,2,Carving a statue using,carve a statue using,Can you carve a statue using,[NP] carved a statue using,a chisel,a toothpick,a valley,telekinesis,began,yesterday,tool,critical,html-keyboard-response,0.06935807129827865,impossible,impossible_physics,Carving a statue using a valley.,session-657b666f46900
anon_subject_13,657a657ec1de517384e4122b,657b65772874925cfb6162a5,79,0.0-4.0-0.22,197160,1139,"<div style=""font-size:20px;""><p>Washing your hair with though.</p></div>",0,28,Washing your hair with,wash your hair with,Can you wash your hair with,[NP] washed [POSS] hair with,shampoo,detergent,air,mermaids,though,minutes,tool,critical,html-keyboard-response,0.06935807129827865,nonsense,inconceivable_syntactic,Washing your hair with though.,session-657b666f46900
anon_subject_13,657a657ec1de517384e4122b,657b65772874925cfb6162a5,81,0.0-4.0-0.23,199730,1565,"<div style=""font-size:20px;""><p>Starting a fire using enchantments.</p></div>",9,23,Starting a fire using,start a fire using,Can you start a fire using,[NP] started a fire using,kindling,furniture,milk,enchantments,sometimes,traffic,tool,critical,html-keyboard-response,0.06935807129827865,impossible,impossible_magic,Starting a fire using enchantments.,session-657b666f46900
anon_subject_13,657a657ec1de517384e4122b,657b65772874925cfb6162a5,83,0.0-4.0-0.24,202206,1471,"<div style=""font-size:20px;""><p>Constructing a tower using concrete.</p></div>",1,26,Constructing a tower using,construct a tower using,Can you construct a tower using,[NP] constructed a tower using,concrete,blocks,a lake,[POSS] mind,while,laughter,material,critical,html-keyboard-response,0.06935807129827865,probable,probable,Constructing a tower using concrete.,session-657b666f46900
anon_subject_13,657a657ec1de517384e4122b,657b65772874925cfb6162a5,85,0.0-4.0-0.25,204386,1176,"<div style=""font-size:20px;""><p>Wiping a spill using sentences.</p></div>",0,19,Wiping a spill using,wipe a spill using,Can you wipe a spill using,[NP] wiped a spill using,a tissue,a scarf,a piano,divination,make,sentences,tool,critical,html-keyboard-response,0.06935807129827865,nonsense,inconceivable_semantic,Wiping a spill using sentences.,session-657b666f46900
anon_subject_13,657a657ec1de517384e4122b,657b65772874925cfb6162a5,87,0.0-4.0-0.26,207709,2317,"<div style=""font-size:20px;""><p>Building a robot out of elixirs.</p></div>",9,6,Building a robot out of,build a robot out of,Can you build a robot out of,[NP] built a robot out of,metal,plastic,soup,elixirs,with,honesty,material,critical,html-keyboard-response,0.06935807129827865,impossible,impossible_magic,Building a robot out of elixirs.,session-657b666f46900
anon_subject_13,657a657ec1de517384e4122b,657b65772874925cfb6162a5,89,0.0-4.0-0.27,209936,1223,"<div style=""font-size:20px;""><p>Crafting jewelry using beads.</p></div>",1,15,Crafting jewelry using,craft jewelry using,Can you craft jewelry using,[NP] crafted jewelry using,beads,leather,a volcano,alchemy,until,opinions,tool,critical,html-keyboard-response,0.06935807129827865,probable,probable,Crafting jewelry using beads.,session-657b666f46900
anon_subject_13,657a657ec1de517384e4122b,657b65772874925cfb6162a5,91,0.0-4.0-0.28,212825,1885,"<div style=""font-size:20px;""><p>Baking a cake using anger.</p></div>",9,1,Baking a cake using,bake a cake using,Can you bake a cake using,[NP] baked a cake using,an oven,an airfryer,a refrigerator,superpowers,grasp,anger,tool,critical,html-keyboard-response,0.06935807129827865,impossible,inconceivable_semantic,Baking a cake using anger.,session-657b666f46900
anon_subject_13,657a657ec1de517384e4122b,657b65772874925cfb6162a5,93,0.0-4.0-0.29,215226,1396,"<div style=""font-size:20px;""><p>Chilling a drink using snow.</p></div>",1,4,Chilling a drink using,chill a drink using,Can you chill a drink using,[NP] chilled a drink using,ice,snow,fire,pixies,at,tomorrow,tool,critical,html-keyboard-response,0.06935807129827865,probable,improbable,Chilling a drink using snow.,session-657b666f46900
anon_subject_18,657a657ec1de517384e4122b,657b66a11055c59c90f188a4,67,0.0-4.0-0.0,340813,16244,"<div style=""font-size:20px;""><p>Wiping a spill using a piano.</p></div>",2,19,Wiping a spill using,wipe a spill using,Can you wipe a spill using,[NP] wiped a spill using,a tissue,a scarf,a piano,divination,make,sentences,tool,critical,html-keyboard-response,0.5955761478811581,improbable,impossible_physics,Wiping a spill using a piano.,session-657b6934ecc19
anon_subject_18,657a657ec1de517384e4122b,657b66a11055c59c90f188a4,69,0.0-4.0-0.1,347603,5781,"<div style=""font-size:20px;""><p>Growing vegetables in bleach.</p></div>",9,9,Growing vegetables in,grow vegetables in,Can you grow vegetables in,[NP] grew vegetables in,soil,sand,bleach,stardust,become,justice,material,critical,html-keyboard-response,0.5955761478811581,impossible,impossible_physics,Growing vegetables in bleach.,session-657b6934ecc19
anon_subject_18,657a657ec1de517384e4122b,657b66a11055c59c90f188a4,71,0.0-4.0-0.2,352556,3948,"<div style=""font-size:20px;""><p>Flying a kite using witchcraft.</p></div>",9,7,Flying a kite using,fly a kite using,Can you fly a kite using,[NP] flew a kite using,string,floss,lead,witchcraft,give,a sound,tool,critical,html-keyboard-response,0.5955761478811581,impossible,impossible_magic,Flying a kite using witchcraft.,session-657b6934ecc19
anon_subject_18,657a657ec1de517384e4122b,657b66a11055c59c90f188a4,73,0.0-4.0-0.3,359187,5628,"<div style=""font-size:20px;""><p>Hiding a gift using invisibility.</p></div>",9,29,Hiding a gift using,hide a gift using,Can you hide a gift using,[NP] hid a gift using,a closet,a tarp,a cloud,invisibility,during,concepts,tool,critical,html-keyboard-response,0.5955761478811581,impossible,impossible_magic,Hiding a gift using invisibility.,session-657b6934ecc19
anon_subject_18,657a657ec1de517384e4122b,657b66a11055c59c90f188a4,75,0.0-4.0-0.4,363916,3725,"<div style=""font-size:20px;""><p>Constructing a tower using laughter.</p></div>",0,26,Constructing a tower using,construct a tower using,Can you construct a tower using,[NP] constructed a tower using,concrete,blocks,a lake,[POSS] mind,while,laughter,material,critical,html-keyboard-response,0.5955761478811581,nonsense,inconceivable_semantic,Constructing a tower using laughter.,session-657b6934ecc19
anon_subject_18,657a657ec1de517384e4122b,657b66a11055c59c90f188a4,77,0.0-4.0-0.5,369572,4648,"<div style=""font-size:20px;""><p>Crafting a bowl out of clay.</p></div>",1,8,Crafting a bowl out of,craft a bowl out of,Can you craft a bowl out of,[NP] crafted a bowl out of,clay,mud,smoke,auras,forget,friction,material,critical,html-keyboard-response,0.5955761478811581,probable,probable,Crafting a bowl out of clay.,session-657b6934ecc19
anon_subject_18,657a657ec1de517384e4122b,657b66a11055c59c90f188a4,79,0.0-4.0-0.6,377524,6949,"<div style=""font-size:20px;""><p>Building a bridge out of ambrosia.</p></div>",9,24,Building a bridge out of,construct a bridge out of,Can you construct a bridge out of,[NP] constructed a bridge out of,steel,plastic,gas,ambrosia,from,truth,material,critical,html-keyboard-response,0.5955761478811581,impossible,impossible_magic,Building a bridge out of ambrosia.,session-657b6934ecc19
anon_subject_18,657a657ec1de517384e4122b,657b66a11055c59c90f188a4,81,0.0-4.0-0.7,397820,19280,"<div style=""font-size:20px;""><p>Lighting a candle with a blowtorch.</p></div>",2,21,Lighting a candle with,light a candle with,Can you light a candle with,[NP] lit a candle with,a match,a blowtorch,a pool,spells,choose,years,tool,critical,html-keyboard-response,0.5955761478811581,improbable,improbable,Lighting a candle with a blowtorch.,session-657b6934ecc19
