subject_id,study_id,session_id,trial_index,internal_node_id,time_elapsed,rt,stimulus,response,item_id,original_item_id,prefix,infinitive_prefix,expt_prefix,sentence_prefix,probable,improbable,impossible_physics,impossible_magic,inconceivable_syntactic,inconceivable_semantic,prefix_type,task_type,trial_type,rng_seed,response_label,condition,query,session_file_id,response_correct,rt_normalized
anon_subject_285,659f04805339f753c1b65235,65a03ef5ee5c94479846d5af,10,0.0-3.0-0.0,47398,2656,"<div style=""font-size:20px;""><p>Could someone bake a cake using an oven?</p></div>",1,1,1,Baking a cake using,bake a cake using,Can you bake a cake using,[NP] baked a cake using,an oven,an airfryer,a refrigerator,superpowers,grasp,anger,tool,critical,html-keyboard-response,0.0691423299560309,yes,probable,Could someone bake a cake using an oven?,session-65a04185c5cb4,True,0.9456221384325688
anon_subject_285,659f04805339f753c1b65235,65a03ef5ee5c94479846d5af,12,0.0-3.0-0.1,49710,1310,"<div style=""font-size:20px;""><p>Could someone construct a tower using [POSS] mind?</p></div>",0,14,26,Constructing a tower using,construct a tower using,Can you construct a tower using,[NP] constructed a tower using,concrete,blocks,a lake,[POSS] mind,while,laughter,material,critical,html-keyboard-response,0.0691423299560309,no,impossible_magic,Could someone construct a tower using [POSS] mind?,session-65a04185c5cb4,True,-1.1180180318020083
anon_subject_285,659f04805339f753c1b65235,65a03ef5ee5c94479846d5af,14,0.0-3.0-0.2,52429,1704,"<div style=""font-size:20px;""><p>Could someone paint a house using a planet?</p></div>",0,8,14,Painting a house using,paint a house using,Can you paint a house using,[NP] painted a house using,a brush,a mop,a planet,incantations,before,questions,tool,critical,html-keyboard-response,0.0691423299560309,no,impossible_physics,Could someone paint a house using a planet?,session-65a04185c5cb4,True,-0.5139509983158097
anon_subject_285,659f04805339f753c1b65235,65a03ef5ee5c94479846d5af,16,0.0-3.0-0.3,55541,2099,"<div style=""font-size:20px;""><p>Could someone chill a drink using ice?</p></div>",1,2,4,Chilling a drink using,chill a drink using,Can you chill a drink using,[NP] chilled a drink using,ice,snow,fire,pixies,at,tomorrow,tool,critical,html-keyboard-response,0.0691423299560309,yes,probable,Could someone chill a drink using ice?,session-65a04185c5cb4,True,0.09164920022999863
anon_subject_285,659f04805339f753c1b65235,65a03ef5ee5c94479846d5af,18,0.0-3.0-0.4,58141,1593,"<div style=""font-size:20px;""><p>Could someone craft a bowl out of friction?</p></div>",0,5,8,Crafting a bowl out of,craft a bowl out of,Can you craft a bowl out of,[NP] crafted a bowl out of,clay,mud,smoke,auras,forget,friction,material,critical,html-keyboard-response,0.0691423299560309,no,inconceivable_semantic,Could someone craft a bowl out of friction?,session-65a04185c5cb4,True,-0.6841323199324798
anon_subject_285,659f04805339f753c1b65235,65a03ef5ee5c94479846d5af,20,0.0-3.0-0.5,61253,2109,"<div style=""font-size:20px;""><p>Could someone start a fire using traffic?</p></div>",0,12,23,Starting a fire using,start a fire using,Can you start a fire using,[NP] started a fire using,kindling,furniture,milk,enchantments,sometimes,traffic,tool,critical,html-keyboard-response,0.0691423299560309,no,inconceivable_semantic,Could someone start a fire using traffic?,session-65a04185c5cb4,True,0.10698085082609504
anon_subject_285,659f04805339f753c1b65235,65a03ef5ee5c94479846d5af,22,0.0-3.0-0.6,64541,2282,"<div style=""font-size:20px;""><p>Could someone shovel a driveway full of except?</p></div>",0,13,25,Shoveling a driveway full of,shovel a driveway full of,Can you shovel a driveway full of,[NP] shoveled a driveway full of,snow,ice,sunshine,ogres,except,rumors,material,critical,html-keyboard-response,0.0691423299560309,no,inconceivable_syntactic,Could someone shovel a driveway full of except?,session-65a04185c5cb4,True,0.372218406138563
anon_subject_285,659f04805339f753c1b65235,65a03ef5ee5c94479846d5af,24,0.0-3.0-0.7,67662,2107,"<div style=""font-size:20px;""><p>Could someone draw a picture using a mountain?</p></div>",0,18,30,Drawing a picture using,draw a picture using,Can you draw a picture using,[NP] drew a picture using,a pencil,lipstick,a mountain,magic,always,a smell,tool,critical,html-keyboard-response,0.0691423299560309,no,impossible_physics,Could someone draw a picture using a mountain?,session-65a04185c5cb4,True,0.10391452070687576
anon_subject_285,659f04805339f753c1b65235,65a03ef5ee5c94479846d5af,26,0.0-3.0-0.8,70430,1754,"<div style=""font-size:20px;""><p>Could someone grow vegetables in sand?</p></div>",1,6,9,Growing vegetables in,grow vegetables in,Can you grow vegetables in,[NP] grew vegetables in,soil,sand,bleach,a potion,become,justice,material,critical,html-keyboard-response,0.0691423299560309,yes,improbable,Could someone grow vegetables in sand?,session-65a04185c5cb4,True,-0.4372927453353276
anon_subject_285,659f04805339f753c1b65235,65a03ef5ee5c94479846d5af,30,0.0-3.0-0.10,78374,1757,"<div style=""font-size:20px;""><p>Could someone construct a castle using follow?</p></div>",0,10,20,Constructing a castle using,construct a castle using,Can you construct a castle using,[NP] constructed a castle using,bricks,gems,a star,wizardry,follow,boredom,tool,critical,html-keyboard-response,0.0691423299560309,no,inconceivable_syntactic,Could someone construct a castle using follow?,session-65a04185c5cb4,True,-0.4326932501564987
anon_subject_285,659f04805339f753c1b65235,65a03ef5ee5c94479846d5af,32,0.0-3.0-0.11,81469,2089,"<div style=""font-size:20px;""><p>Could someone brew coffee using into?</p></div>",0,7,13,Brewing coffee using,brew coffee using,Can you brew coffee using,[NP] brewed coffee using,water,soda,glue,lightsabers,into,numbers,tool,critical,html-keyboard-response,0.0691423299560309,no,inconceivable_syntactic,Could someone brew coffee using into?,session-65a04185c5cb4,True,0.07631754963390222
anon_subject_285,659f04805339f753c1b65235,65a03ef5ee5c94479846d5af,34,0.0-3.0-0.12,84686,2090,"<div style=""font-size:20px;""><p>Could someone seal a box using magnets?</p></div>",0,9,17,Sealing a box using,seal a box using,Can you seal a box using,[NP] sealed a box using,tape,magnets,wine,sorcery,do,jokes,tool,critical,html-keyboard-response,0.0691423299560309,no,improbable,Could someone seal a box using magnets?,session-65a04185c5cb4,False,0.07785071469351186
anon_subject_285,659f04805339f753c1b65235,65a03ef5ee5c94479846d5af,36,0.0-3.0-0.13,87366,1674,"<div style=""font-size:20px;""><p>Could someone tow a car using a truck?</p></div>",1,11,22,Towing a car using,tow a car using,Can you tow a car using,[NP] towed a car using,a truck,a horse,a butterfly,aliens,then,freedom,tool,critical,html-keyboard-response,0.0691423299560309,yes,probable,Could someone tow a car using a truck?,session-65a04185c5cb4,True,-0.5599459501040989
anon_subject_285,659f04805339f753c1b65235,65a03ef5ee5c94479846d5af,38,0.0-3.0-0.14,89774,1396,"<div style=""font-size:20px;""><p>Could someone wash dishes using arithmetic?</p></div>",0,3,5,Washing dishes using,wash dishes using,Can you wash dishes using,[NP] washed dishes using,soap,rain,lightning,fairies,fell,arithmetic,tool,critical,html-keyboard-response,0.0691423299560309,no,inconceivable_semantic,Could someone wash dishes using arithmetic?,session-65a04185c5cb4,True,-0.9861658366755792
anon_subject_285,659f04805339f753c1b65235,65a03ef5ee5c94479846d5af,40,0.0-3.0-0.15,92534,1750,"<div style=""font-size:20px;""><p>Could someone hide a gift using invisibility?</p></div>",0,17,29,Hiding a gift using,hide a gift using,Can you hide a gift using,[NP] hid a gift using,a closet,a tarp,a cloud,invisibility,during,concepts,tool,critical,html-keyboard-response,0.0691423299560309,no,impossible_magic,Could someone hide a gift using invisibility?,session-65a04185c5cb4,True,-0.4434254055737662
anon_subject_285,659f04805339f753c1b65235,65a03ef5ee5c94479846d5af,42,0.0-3.0-0.16,95046,1508,"<div style=""font-size:20px;""><p>Could someone fly a kite using witchcraft?</p></div>",0,4,7,Flying a kite using,fly a kite using,Can you fly a kite using,[NP] flew a kite using,string,dental floss,lead,witchcraft,give,a sound,tool,critical,html-keyboard-response,0.0691423299560309,no,impossible_magic,Could someone fly a kite using witchcraft?,session-65a04185c5cb4,True,-0.8144513499992994
anon_subject_285,659f04805339f753c1b65235,65a03ef5ee5c94479846d5af,44,0.0-3.0-0.17,98741,2680,"<div style=""font-size:20px;""><p>Could someone knit a scarf using wire?</p></div>",1,15,27,Knitting a scarf using,knit a scarf using,Can you knit a scarf using,[NP] knitted a scarf using,yarn,wire,lava,telepathy,for,sadness,material,critical,html-keyboard-response,0.0691423299560309,yes,improbable,Could someone knit a scarf using wire?,session-65a04185c5cb4,True,0.9824180998632002
anon_subject_30,659f04805339f753c1b65235,65a0471539341d75b93cf885,20,0.0-3.0-0.1,72572,1664,"<div style=""font-size:20px;""><p>Could someone bake a cake using superpowers?</p></div>",0,1,1,Baking a cake using,bake a cake using,Can you bake a cake using,[NP] baked a cake using,an oven,an airfryer,a refrigerator,superpowers,grasp,anger,tool,critical,html-keyboard-response,0.7930852442032413,no,impossible_magic,Could someone bake a cake using superpowers?,session-65a04795a47b9,True,0.35305592320014345
anon_subject_30,659f04805339f753c1b65235,65a0471539341d75b93cf885,22,0.0-3.0-0.2,74822,1244,"<div style=""font-size:20px;""><p>Could someone wash dishes using soap?</p></div>",1,3,5,Washing dishes using,wash dishes using,Can you wash dishes using,[NP] washed dishes using,soap,rain,lightning,fairies,fell,arithmetic,tool,critical,html-keyboard-response,0.7930852442032413,yes,probable,Could someone wash dishes using soap?,session-65a04795a47b9,True,-0.33985757093097924
anon_subject_30,659f04805339f753c1b65235,65a0471539341d75b93cf885,24,0.0-3.0-0.3,77254,1429,"<div style=""font-size:20px;""><p>Could someone hide a gift using during?</p></div>",0,17,29,Hiding a gift using,hide a gift using,Can you hide a gift using,[NP] hid a gift using,a closet,a tarp,a cloud,invisibility,during,concepts,tool,critical,html-keyboard-response,0.7930852442032413,no,inconceivable_syntactic,Could someone hide a gift using during?,session-65a04795a47b9,True,-0.034645674706556134
anon_subject_30,659f04805339f753c1b65235,65a0471539341d75b93cf885,26,0.0-3.0-0.4,79589,1330,"<div style=""font-size:20px;""><p>Could someone seal a box using jokes?</p></div>",0,9,17,Sealing a box using,seal a box using,Can you seal a box using,[NP] sealed a box using,tape,magnets,wine,sorcery,do,jokes,tool,critical,html-keyboard-response,0.7930852442032413,no,inconceivable_semantic,Could someone seal a box using jokes?,session-65a04795a47b9,True,-0.19797528403746362
anon_subject_30,659f04805339f753c1b65235,65a0471539341d75b93cf885,28,0.0-3.0-0.5,81751,1157,"<div style=""font-size:20px;""><p>Could someone paint a house using a brush?</p></div>",1,8,14,Painting a house using,paint a house using,Can you paint a house using,[NP] painted a house using,a brush,a mop,a planet,incantations,before,questions,tool,critical,html-keyboard-response,0.7930852442032413,yes,probable,Could someone paint a house using a brush?,session-65a04795a47b9,True,-0.48338965185814037
anon_subject_30,659f04805339f753c1b65235,65a0471539341d75b93cf885,30,0.0-3.0-0.6,84067,1311,"<div style=""font-size:20px;""><p>Could someone construct a tower using concrete?</p></div>",1,14,26,Constructing a tower using,construct a tower using,Can you construct a tower using,[NP] constructed a tower using,concrete,blocks,a lake,[POSS] mind,while,laughter,material,critical,html-keyboard-response,0.7930852442032413,yes,probable,Could someone construct a tower using concrete?,session-65a04795a47b9,True,-0.2293213706767287
anon_subject_30,659f04805339f753c1b65235,65a0471539341d75b93cf885,32,0.0-3.0-0.7,86221,1150,"<div style=""font-size:20px;""><p>Could someone construct a castle using wizardry?</p></div>",0,10,20,Constructing a castle using,construct a castle using,Can you construct a castle using,[NP] constructed a castle using,bricks,gems,a star,wizardry,follow,boredom,tool,critical,html-keyboard-response,0.7930852442032413,no,impossible_magic,Could someone construct a castle using wizardry?,session-65a04795a47b9,True,-0.49493821009365907
anon_subject_30,659f04805339f753c1b65235,65a0471539341d75b93cf885,34,0.0-3.0-0.8,88845,1618,"<div style=""font-size:20px;""><p>Could someone knit a scarf using for?</p></div>",0,15,27,Knitting a scarf using,knit a scarf using,Can you knit a scarf using,[NP] knitted a scarf using,yarn,wire,lava,telepathy,for,sadness,material,critical,html-keyboard-response,0.7930852442032413,no,inconceivable_syntactic,Could someone knit a scarf using for?,session-65a04795a47b9,True,0.2771653976524491
anon_subject_30,659f04805339f753c1b65235,65a0471539341d75b93cf885,36,0.0-3.0-0.9,91185,1334,"<div style=""font-size:20px;""><p>Could someone wash their hair with air?</p></div>",0,16,28,Washing your hair with,wash your hair with,Can you wash your hair with,[NP] washed [POSS] hair with,shampoo,detergent,air,mermaids,though,minutes,tool,critical,html-keyboard-response,0.7930852442032413,no,impossible_physics,Could someone wash their hair with air?,session-65a04795a47b9,True,-0.1913761079028815
anon_subject_30,659f04805339f753c1b65235,65a0471539341d75b93cf885,38,0.0-3.0-0.10,93252,1062,"<div style=""font-size:20px;""><p>Could someone draw a picture using a smell?</p></div>",0,18,30,Drawing a picture using,draw a picture using,Can you draw a picture using,[NP] drew a picture using,a pencil,lipstick,a mountain,magic,always,a smell,tool,critical,html-keyboard-response,0.7930852442032413,no,inconceivable_semantic,Could someone draw a picture using a smell?,session-65a04795a47b9,True,-0.6401200850544657
anon_subject_30,659f04805339f753c1b65235,65a0471539341d75b93cf885,40,0.0-3.0-0.11,95291,1035,"<div style=""font-size:20px;""><p>Could someone brew coffee using glue?</p></div>",0,7,13,Brewing coffee using,brew coffee using,Can you brew coffee using,[NP] brewed coffee using,water,soda,glue,lightsabers,into,numbers,tool,critical,html-keyboard-response,0.7930852442032413,no,impossible_physics,Could someone brew coffee using glue?,session-65a04795a47b9,True,-0.684664523962895
anon_subject_30,659f04805339f753c1b65235,65a0471539341d75b93cf885,42,0.0-3.0-0.12,97488,1191,"<div style=""font-size:20px;""><p>Could someone grow vegetables in a potion?</p></div>",0,6,9,Growing vegetables in,grow vegetables in,Can you grow vegetables in,[NP] grew vegetables in,soil,sand,bleach,a potion,become,justice,material,critical,html-keyboard-response,0.7930852442032413,no,impossible_magic,Could someone grow vegetables in a potion?,session-65a04795a47b9,True,-0.4272966547141923
anon_subject_30,659f04805339f753c1b65235,65a0471539341d75b93cf885,44,0.0-3.0-0.13,99670,1178,"<div style=""font-size:20px;""><p>Could someone craft a bowl out of smoke?</p></div>",0,5,8,Crafting a bowl out of,craft a bowl out of,Can you craft a bowl out of,[NP] crafted a bowl out of,clay,mud,smoke,auras,forget,friction,material,critical,html-keyboard-response,0.7930852442032413,no,impossible_physics,Could someone craft a bowl out of smoke?,session-65a04795a47b9,True,-0.4487439771515842
anon_subject_30,659f04805339f753c1b65235,65a0471539341d75b93cf885,46,0.0-3.0-0.14,101920,1246,"<div style=""font-size:20px;""><p>Could someone shovel a driveway full of ice?</p></div>",1,13,25,Shoveling a driveway full of,shovel a driveway full of,Can you shovel a driveway full of,[NP] shoveled a driveway full of,snow,ice,sunshine,ogres,except,rumors,material,critical,html-keyboard-response,0.7930852442032413,yes,improbable,Could someone shovel a driveway full of ice?,session-65a04795a47b9,True,-0.33655798286368815
anon_subject_30,659f04805339f753c1b65235,65a0471539341d75b93cf885,48,0.0-3.0-0.15,104193,1267,"<div style=""font-size:20px;""><p>Could someone tow a car using then?</p></div>",0,11,22,Towing a car using,tow a car using,Can you tow a car using,[NP] towed a car using,a truck,a horse,a butterfly,aliens,then,freedom,tool,critical,html-keyboard-response,0.7930852442032413,no,inconceivable_syntactic,Could someone tow a car using then?,session-65a04795a47b9,True,-0.30191230815713205
anon_subject_30,659f04805339f753c1b65235,65a0471539341d75b93cf885,50,0.0-3.0-0.16,106361,1164,"<div style=""font-size:20px;""><p>Could someone fly a kite using a sound?</p></div>",0,4,7,Flying a kite using,fly a kite using,Can you fly a kite using,[NP] flew a kite using,string,dental floss,lead,witchcraft,give,a sound,tool,critical,html-keyboard-response,0.7930852442032413,no,inconceivable_semantic,Could someone fly a kite using a sound?,session-65a04795a47b9,True,-0.4718410936226216
anon_subject_30,659f04805339f753c1b65235,65a0471539341d75b93cf885,52,0.0-3.0-0.17,109415,2051,"<div style=""font-size:20px;""><p>Could someone chill a drink using snow?</p></div>",1,2,4,Chilling a drink using,chill a drink using,Can you chill a drink using,[NP] chilled a drink using,ice,snow,fire,pixies,at,tomorrow,tool,critical,html-keyboard-response,0.7930852442032413,yes,improbable,Could someone chill a drink using snow?,session-65a04795a47b9,True,0.9915262142209637
anon_subject_42,659f04805339f753c1b65235,65a0479e591c52695cdbe8c1,18,0.0-3.0-0.0,50026,2460,"<div style=""font-size:20px;""><p>Could someone paint a house using a mop?</p></div>",1,8,14,Painting a house using,paint a house using,Can you paint a house using,[NP] painted a house using,a brush,a mop,a planet,incantations,before,questions,tool,critical,html-keyboard-response,0.4290670587524601,yes,improbable,Could someone paint a house using a mop?,session-65a0480f911e6,True,2.6619778942803287
anon_subject_42,659f04805339f753c1b65235,65a0479e591c52695cdbe8c1,20,0.0-3.0-0.1,52554,1525,"<div style=""font-size:20px;""><p>Could someone brew coffee using numbers?</p></div>",0,7,13,Brewing coffee using,brew coffee using,Can you brew coffee using,[NP] brewed coffee using,water,soda,glue,lightsabers,into,numbers,tool,critical,html-keyboard-response,0.4290670587524601,no,inconceivable_semantic,Could someone brew coffee using numbers?,session-65a0480f911e6,True,-0.12242782111668377
anon_subject_42,659f04805339f753c1b65235,65a0479e591c52695cdbe8c1,22,0.0-3.0-0.2,55218,1659,"<div style=""font-size:20px;""><p>Could someone grow vegetables in bleach?</p></div>",0,6,9,Growing vegetables in,grow vegetables in,Can you grow vegetables in,[NP] grew vegetables in,soil,sand,bleach,a potion,become,justice,material,critical,html-keyboard-response,0.4290670587524601,no,impossible_physics,Could someone grow vegetables in bleach?,session-65a0480f911e6,True,0.27662069852310195
anon_subject_42,659f04805339f753c1b65235,65a0479e591c52695cdbe8c1,24,0.0-3.0-0.3,58113,1889,"<div style=""font-size:20px;""><p>Could someone draw a picture using magic?</p></div>",0,18,30,Drawing a picture using,draw a picture using,Can you draw a picture using,[NP] drew a picture using,a pencil,lipstick,a mountain,magic,always,a smell,tool,critical,html-keyboard-response,0.4290670587524601,no,impossible_magic,Could someone draw a picture using magic?,session-65a0480f911e6,True,0.9615547247704953
anon_subject_42,659f04805339f753c1b65235,65a0479e591c52695cdbe8c1,26,0.0-3.0-0.4,60734,1617,"<div style=""font-size:20px;""><p>Could someone shovel a driveway full of ogres?</p></div>",0,13,25,Shoveling a driveway full of,shovel a driveway full of,Can you shovel a driveway full of,[NP] shoveled a driveway full of,snow,ice,sunshine,ogres,except,rumors,material,critical,html-keyboard-response,0.4290670587524601,no,impossible_magic,Could someone shovel a driveway full of ogres?,session-65a0480f911e6,True,0.1515457893822736
anon_subject_42,659f04805339f753c1b65235,65a0479e591c52695cdbe8c1,28,0.0-3.0-0.5,63049,1308,"<div style=""font-size:20px;""><p>Could someone fly a kite using string?</p></div>",1,4,7,Flying a kite using,fly a kite using,Can you fly a kite using,[NP] flew a kite using,string,dental floss,lead,witchcraft,give,a sound,tool,critical,html-keyboard-response,0.4290670587524601,yes,probable,Could someone fly a kite using string?,session-65a0480f911e6,True,-0.7686481850109637
anon_subject_42,659f04805339f753c1b65235,65a0479e591c52695cdbe8c1,30,0.0-3.0-0.6,66008,1954,"<div style=""font-size:20px;""><p>Could someone hide a gift using a closet?</p></div>",1,17,29,Hiding a gift using,hide a gift using,Can you hide a gift using,[NP] hid a gift using,a closet,a tarp,a cloud,invisibility,during,concepts,tool,critical,html-keyboard-response,0.4290670587524601,yes,probable,Could someone hide a gift using a closet?,session-65a0480f911e6,True,1.155123036536063
anon_subject_42,659f04805339f753c1b65235,65a0479e591c52695cdbe8c1,32,0.0-3.0-0.7,68431,1417,"<div style=""font-size:20px;""><p>Could someone seal a box using do?</p></div>",0,9,17,Sealing a box using,seal a box using,Can you seal a box using,[NP] sealed a box using,tape,magnets,wine,sorcery,do,jokes,tool,critical,html-keyboard-response,0.4290670587524601,no,inconceivable_syntactic,Could someone seal a box using do?,session-65a0480f911e6,True,-0.4440490160502424
anon_subject_42,659f04805339f753c1b65235,65a0479e591c52695cdbe8c1,34,0.0-3.0-0.8,70729,1292,"<div style=""font-size:20px;""><p>Could someone wash their hair with though?</p></div>",0,16,28,Washing your hair with,wash your hair with,Can you wash your hair with,[NP] washed [POSS] hair with,shampoo,detergent,air,mermaids,though,minutes,tool,critical,html-keyboard-response,0.4290670587524601,no,inconceivable_syntactic,Could someone wash their hair with though?,session-65a0480f911e6,True,-0.8162957694455649
anon_subject_42,659f04805339f753c1b65235,65a0479e591c52695cdbe8c1,36,0.0-3.0-0.9,73084,1353,"<div style=""font-size:20px;""><p>Could someone knit a scarf using lava?</p></div>",0,15,27,Knitting a scarf using,knit a scarf using,Can you knit a scarf using,[NP] knitted a scarf using,yarn,wire,lava,telepathy,for,sadness,material,critical,html-keyboard-response,0.4290670587524601,no,impossible_physics,Could someone knit a scarf using lava?,session-65a0480f911e6,True,-0.6346393537886476
anon_subject_42,659f04805339f753c1b65235,65a0479e591c52695cdbe8c1,38,0.0-3.0-0.10,75476,1386,"<div style=""font-size:20px;""><p>Could someone bake a cake using superpowers?</p></div>",0,1,1,Baking a cake using,bake a cake using,Can you bake a cake using,[NP] baked a cake using,an oven,an airfryer,a refrigerator,superpowers,grasp,anger,tool,critical,html-keyboard-response,0.4290670587524601,no,impossible_magic,Could someone bake a cake using superpowers?,session-65a0480f911e6,True,-0.5363662108922824
anon_subject_42,659f04805339f753c1b65235,65a0479e591c52695cdbe8c1,40,0.0-3.0-0.11,77680,1199,"<div style=""font-size:20px;""><p>Could someone craft a bowl out of friction?</p></div>",0,5,8,Crafting a bowl out of,craft a bowl out of,Can you craft a bowl out of,[NP] crafted a bowl out of,clay,mud,smoke,auras,forget,friction,material,critical,html-keyboard-response,0.4290670587524601,no,inconceivable_semantic,Could someone craft a bowl out of friction?,session-65a0480f911e6,True,-1.093247353971685
anon_subject_42,659f04805339f753c1b65235,65a0479e591c52695cdbe8c1,42,0.0-3.0-0.12,79845,1159,"<div style=""font-size:20px;""><p>Could someone wash dishes using fell?</p></div>",0,3,5,Washing dishes using,wash dishes using,Can you wash dishes using,[NP] washed dishes using,soap,rain,lightning,fairies,fell,arithmetic,tool,critical,html-keyboard-response,0.4290670587524601,no,inconceivable_syntactic,Could someone wash dishes using fell?,session-65a0480f911e6,True,-1.212366315058188
anon_subject_42,659f04805339f753c1b65235,65a0479e591c52695cdbe8c1,44,0.0-3.0-0.13,82897,2045,"<div style=""font-size:20px;""><p>Could someone chill a drink using ice?</p></div>",1,2,4,Chilling a drink using,chill a drink using,Can you chill a drink using,[NP] chilled a drink using,ice,snow,fire,pixies,at,tomorrow,tool,critical,html-keyboard-response,0.4290670587524601,yes,probable,Could someone chill a drink using ice?,session-65a0480f911e6,True,1.4261186730078579
anon_subject_42,659f04805339f753c1b65235,65a0479e591c52695cdbe8c1,46,0.0-3.0-0.14,85464,1562,"<div style=""font-size:20px;""><p>Could someone tow a car using a horse?</p></div>",1,11,22,Towing a car using,tow a car using,Can you tow a car using,[NP] towed a car using,a truck,a horse,a butterfly,aliens,then,freedom,tool,critical,html-keyboard-response,0.4290670587524601,yes,improbable,Could someone tow a car using a horse?,session-65a0480f911e6,True,-0.012242782111668309
anon_subject_42,659f04805339f753c1b65235,65a0479e591c52695cdbe8c1,48,0.0-3.0-0.15,87785,1314,"<div style=""font-size:20px;""><p>Could someone construct a castle using boredom?</p></div>",0,10,20,Constructing a castle using,construct a castle using,Can you construct a castle using,[NP] constructed a castle using,bricks,gems,a star,wizardry,follow,boredom,tool,critical,html-keyboard-response,0.4290670587524601,no,inconceivable_semantic,Could someone construct a castle using boredom?,session-65a0480f911e6,True,-0.7507803408479882
anon_subject_42,659f04805339f753c1b65235,65a0479e591c52695cdbe8c1,50,0.0-3.0-0.16,90392,1602,"<div style=""font-size:20px;""><p>Could someone start a fire using furniture?</p></div>",1,12,23,Starting a fire using,start a fire using,Can you start a fire using,[NP] started a fire using,kindling,furniture,milk,enchantments,sometimes,traffic,tool,critical,html-keyboard-response,0.4290670587524601,yes,improbable,Could someone start a fire using furniture?,session-65a0480f911e6,True,0.1068761789748349
anon_subject_42,659f04805339f753c1b65235,65a0479e591c52695cdbe8c1,52,0.0-3.0-0.17,92846,1449,"<div style=""font-size:20px;""><p>Could someone construct a tower using a lake?</p></div>",0,14,26,Constructing a tower using,construct a tower using,Can you construct a tower using,[NP] constructed a tower using,concrete,blocks,a lake,[POSS] mind,while,laughter,material,critical,html-keyboard-response,0.4290670587524601,no,impossible_physics,Could someone construct a tower using a lake?,session-65a0480f911e6,True,-0.34875384718103986
anon_subject_28,659f04805339f753c1b65235,65a05a6f2bb7751b509056c3,10,0.0-3.0-0.0,39469,1973,"<div style=""font-size:20px;""><p>Could someone grow vegetables in become?</p></div>",0,6,9,Growing vegetables in,grow vegetables in,Can you grow vegetables in,[NP] grew vegetables in,soil,sand,bleach,a potion,become,justice,material,critical,html-keyboard-response,0.2319245361945907,no,inconceivable_syntactic,Could someone grow vegetables in become?,session-65a05b470364e,True,0.05101713283448016
anon_subject_28,659f04805339f753c1b65235,65a05a6f2bb7751b509056c3,12,0.0-3.0-0.1,41985,1503,"<div style=""font-size:20px;""><p>Could someone draw a picture using magic?</p></div>",0,18,30,Drawing a picture using,draw a picture using,Can you draw a picture using,[NP] drew a picture using,a pencil,lipstick,a mountain,magic,always,a smell,tool,critical,html-keyboard-response,0.2319245361945907,no,impossible_magic,Could someone draw a picture using magic?,session-65a05b470364e,True,-0.5080566285381907
anon_subject_28,659f04805339f753c1b65235,65a05a6f2bb7751b509056c3,14,0.0-3.0-0.2,44342,1347,"<div style=""font-size:20px;""><p>Could someone wash their hair with air?</p></div>",0,16,28,Washing your hair with,wash your hair with,Can you wash your hair with,[NP] washed [POSS] hair with,shampoo,detergent,air,mermaids,though,minutes,tool,critical,html-keyboard-response,0.2319245361945907,no,impossible_physics,Could someone wash their hair with air?,session-65a05b470364e,True,-0.6936215365682686
anon_subject_28,659f04805339f753c1b65235,65a05a6f2bb7751b509056c3,16,0.0-3.0-0.3,46972,1622,"<div style=""font-size:20px;""><p>Could someone tow a car using a horse?</p></div>",1,11,22,Towing a car using,tow a car using,Can you tow a car using,[NP] towed a car using,a truck,a horse,a butterfly,aliens,then,freedom,tool,critical,html-keyboard-response,0.2319245361945907,yes,improbable,Could someone tow a car using a horse?,session-65a05b470364e,True,-0.3665039102331953
anon_subject_28,659f04805339f753c1b65235,65a05a6f2bb7751b509056c3,20,0.0-3.0-0.5,54731,1150,"<div style=""font-size:20px;""><p>Could someone wash dishes using fairies?</p></div>",0,3,5,Washing dishes using,wash dishes using,Can you wash dishes using,[NP] washed dishes using,soap,rain,lightning,fairies,fell,arithmetic,tool,critical,html-keyboard-response,0.2319245361945907,no,impossible_magic,Could someone wash dishes using fairies?,session-65a05b470364e,True,-0.9279567088883031
anon_subject_28,659f04805339f753c1b65235,65a05a6f2bb7751b509056c3,22,0.0-3.0-0.6,58524,2784,"<div style=""font-size:20px;""><p>Could someone construct a castle using gems?</p></div>",1,10,20,Constructing a castle using,construct a castle using,Can you construct a castle using,[NP] constructed a castle using,bricks,gems,a star,wizardry,follow,boredom,tool,critical,html-keyboard-response,0.2319245361945907,yes,improbable,Could someone construct a castle using gems?,session-65a05b470364e,True,1.015716750862642
anon_subject_28,659f04805339f753c1b65235,65a05a6f2bb7751b509056c3,24,0.0-3.0-0.7,61550,2017,"<div style=""font-size:20px;""><p>Could someone brew coffee using into?</p></div>",0,7,13,Brewing coffee using,brew coffee using,Can you brew coffee using,[NP] brewed coffee using,water,soda,glue,lightsabers,into,numbers,tool,critical,html-keyboard-response,0.2319245361945907,no,inconceivable_syntactic,Could someone brew coffee using into?,session-65a05b470364e,True,0.10335595304809189
anon_subject_28,659f04805339f753c1b65235,65a05a6f2bb7751b509056c3,26,0.0-3.0-0.8,64491,1934,"<div style=""font-size:20px;""><p>Could someone seal a box using jokes?</p></div>",0,9,17,Sealing a box using,seal a box using,Can you seal a box using,[NP] sealed a box using,tape,magnets,wine,sorcery,do,jokes,tool,critical,html-keyboard-response,0.2319245361945907,no,inconceivable_semantic,Could someone seal a box using jokes?,session-65a05b470364e,True,0.004625905826960664
anon_subject_28,659f04805339f753c1b65235,65a05a6f2bb7751b509056c3,28,0.0-3.0-0.9,66859,1362,"<div style=""font-size:20px;""><p>Could someone hide a gift using a closet?</p></div>",1,17,29,Hiding a gift using,hide a gift using,Can you hide a gift using,[NP] hid a gift using,a closet,a tarp,a cloud,invisibility,during,concepts,tool,critical,html-keyboard-response,0.2319245361945907,yes,probable,Could someone hide a gift using a closet?,session-65a05b470364e,True,-0.6757787569499919
anon_subject_28,659f04805339f753c1b65235,65a05a6f2bb7751b509056c3,30,0.0-3.0-0.10,69244,1377,"<div style=""font-size:20px;""><p>Could someone knit a scarf using for?</p></div>",0,15,27,Knitting a scarf using,knit a scarf using,Can you knit a scarf using,[NP] knitted a scarf using,yarn,wire,lava,telepathy,for,sadness,material,critical,html-keyboard-response,0.2319245361945907,no,inconceivable_syntactic,Could someone knit a scarf using for?,session-65a05b470364e,True,-0.6579359773317152
anon_subject_28,659f04805339f753c1b65235,65a05a6f2bb7751b509056c3,32,0.0-3.0-0.11,71707,1456,"<div style=""font-size:20px;""><p>Could someone fly a kite using witchcraft?</p></div>",0,4,7,Flying a kite using,fly a kite using,Can you fly a kite using,[NP] flew a kite using,string,dental floss,lead,witchcraft,give,a sound,tool,critical,html-keyboard-response,0.2319245361945907,no,impossible_magic,Could someone fly a kite using witchcraft?,session-65a05b470364e,True,-0.5639640046754578
anon_subject_28,659f04805339f753c1b65235,65a05a6f2bb7751b509056c3,34,0.0-3.0-0.12,74588,1872,"<div style=""font-size:20px;""><p>Could someone shovel a driveway full of snow?</p></div>",1,13,25,Shoveling a driveway full of,shovel a driveway full of,Can you shovel a driveway full of,[NP] shoveled a driveway full of,snow,ice,sunshine,ogres,except,rumors,material,critical,html-keyboard-response,0.2319245361945907,yes,probable,Could someone shovel a driveway full of snow?,session-65a05b470364e,True,-0.06912424992858315
anon_subject_28,659f04805339f753c1b65235,65a05a6f2bb7751b509056c3,36,0.0-3.0-0.13,76954,1361,"<div style=""font-size:20px;""><p>Could someone chill a drink using snow?</p></div>",1,2,4,Chilling a drink using,chill a drink using,Can you chill a drink using,[NP] chilled a drink using,ice,snow,fire,pixies,at,tomorrow,tool,critical,html-keyboard-response,0.2319245361945907,yes,improbable,Could someone chill a drink using snow?,session-65a05b470364e,True,-0.6769682755912104
anon_subject_28,659f04805339f753c1b65235,65a05a6f2bb7751b509056c3,38,0.0-3.0-0.14,79547,1587,"<div style=""font-size:20px;""><p>Could someone construct a tower using concrete?</p></div>",1,14,26,Constructing a tower using,construct a tower using,Can you construct a tower using,[NP] constructed a tower using,concrete,blocks,a lake,[POSS] mind,while,laughter,material,critical,html-keyboard-response,0.2319245361945907,yes,probable,Could someone construct a tower using concrete?,session-65a05b470364e,True,-0.408137062675841
anon_subject_28,659f04805339f753c1b65235,65a05a6f2bb7751b509056c3,40,0.0-3.0-0.15,81962,1410,"<div style=""font-size:20px;""><p>Could someone paint a house using questions?</p></div>",0,8,14,Painting a house using,paint a house using,Can you paint a house using,[NP] painted a house using,a brush,a mop,a planet,incantations,before,questions,tool,critical,html-keyboard-response,0.2319245361945907,no,inconceivable_semantic,Could someone paint a house using questions?,session-65a05b470364e,True,-0.6186818621715064
anon_subject_28,659f04805339f753c1b65235,65a05a6f2bb7751b509056c3,42,0.0-3.0-0.16,85340,2370,"<div style=""font-size:20px;""><p>Could someone bake a cake using a refrigerator?</p></div>",1,1,1,Baking a cake using,bake a cake using,Can you bake a cake using,[NP] baked a cake using,an oven,an airfryer,a refrigerator,superpowers,grasp,anger,tool,critical,html-keyboard-response,0.2319245361945907,yes,impossible_physics,Could someone bake a cake using a refrigerator?,session-65a05b470364e,False,0.5232560333982043
anon_subject_28,659f04805339f753c1b65235,65a05a6f2bb7751b509056c3,44,0.0-3.0-0.17,89370,3024,"<div style=""font-size:20px;""><p>Could someone craft a bowl out of smoke?</p></div>",0,5,8,Crafting a bowl out of,craft a bowl out of,Can you craft a bowl out of,[NP] crafted a bowl out of,clay,mud,smoke,auras,forget,friction,material,critical,html-keyboard-response,0.2319245361945907,no,impossible_physics,Could someone craft a bowl out of smoke?,session-65a05b470364e,True,1.3012012247550697
anon_subject_75,659f04805339f753c1b65235,65a0478029b65b56eb97c721,10,0.0-3.0-0.0,58513,1998,"<div style=""font-size:20px;""><p>Could someone hide a gift using during?</p></div>",0,17,29,Hiding a gift using,hide a gift using,Can you hide a gift using,[NP] hid a gift using,a closet,a tarp,a cloud,invisibility,during,concepts,tool,critical,html-keyboard-response,0.2754083449016684,no,inconceivable_syntactic,Could someone hide a gift using during?,session-65a04919e5681,True,-0.6416464027908357
anon_subject_75,659f04805339f753c1b65235,65a0478029b65b56eb97c721,12,0.0-3.0-0.1,61417,1889,"<div style=""font-size:20px;""><p>Could someone wash their hair with though?</p></div>",0,16,28,Washing your hair with,wash your hair with,Can you wash your hair with,[NP] washed [POSS] hair with,shampoo,detergent,air,mermaids,though,minutes,tool,critical,html-keyboard-response,0.2754083449016684,no,inconceivable_syntactic,Could someone wash their hair with though?,session-65a04919e5681,True,-0.6836184719471877
anon_subject_75,659f04805339f753c1b65235,65a0478029b65b56eb97c721,14,0.0-3.0-0.2,63969,1537,"<div style=""font-size:20px;""><p>Could someone draw a picture using always?</p></div>",0,18,30,Drawing a picture using,draw a picture using,Can you draw a picture using,[NP] drew a picture using,a pencil,lipstick,a mountain,magic,always,a smell,tool,critical,html-keyboard-response,0.2754083449016684,no,inconceivable_syntactic,Could someone draw a picture using always?,session-65a04919e5681,True,-0.8191613007823793
anon_subject_75,659f04805339f753c1b65235,65a0478029b65b56eb97c721,16,0.0-3.0-0.3,67217,2234,"<div style=""font-size:20px;""><p>Could someone shovel a driveway full of rumors?</p></div>",0,13,25,Shoveling a driveway full of,shovel a driveway full of,Can you shovel a driveway full of,[NP] shoveled a driveway full of,snow,ice,sunshine,ogres,except,rumors,material,critical,html-keyboard-response,0.2754083449016684,no,inconceivable_semantic,Could someone shovel a driveway full of rumors?,session-65a04919e5681,True,-0.5507710970945141
anon_subject_75,659f04805339f753c1b65235,65a0478029b65b56eb97c721,18,0.0-3.0-0.4,72759,4526,"<div style=""font-size:20px;""><p>Could someone craft a bowl out of mud?</p></div>",1,5,8,Crafting a bowl out of,craft a bowl out of,Can you craft a bowl out of,[NP] crafted a bowl out of,clay,mud,smoke,auras,forget,friction,material,critical,html-keyboard-response,0.2754083449016684,yes,improbable,Could someone craft a bowl out of mud?,session-65a04919e5681,True,0.33179754975281256
anon_subject_75,659f04805339f753c1b65235,65a0478029b65b56eb97c721,20,0.0-3.0-0.5,76273,2505,"<div style=""font-size:20px;""><p>Could someone construct a castle using bricks?</p></div>",1,10,20,Constructing a castle using,construct a castle using,Can you construct a castle using,[NP] constructed a castle using,bricks,gems,a star,wizardry,follow,boredom,tool,critical,html-keyboard-response,0.2754083449016684,yes,probable,Could someone construct a castle using bricks?,session-65a04919e5681,True,-0.4464185214856025
anon_subject_75,659f04805339f753c1b65235,65a0478029b65b56eb97c721,22,0.0-3.0-0.6,79177,1899,"<div style=""font-size:20px;""><p>Could someone tow a car using a horse?</p></div>",1,11,22,Towing a car using,tow a car using,Can you tow a car using,[NP] towed a car using,a truck,a horse,a butterfly,aliens,then,freedom,tool,critical,html-keyboard-response,0.2754083449016684,yes,improbable,Could someone tow a car using a horse?,session-65a04919e5681,True,-0.6797678234007334
anon_subject_75,659f04805339f753c1b65235,65a0478029b65b56eb97c721,24,0.0-3.0-0.7,81943,1754,"<div style=""font-size:20px;""><p>Could someone chill a drink using fire?</p></div>",0,2,4,Chilling a drink using,chill a drink using,Can you chill a drink using,[NP] chilled a drink using,ice,snow,fire,pixies,at,tomorrow,tool,critical,html-keyboard-response,0.2754083449016684,no,impossible_physics,Could someone chill a drink using fire?,session-65a04919e5681,True,-0.7356022273243208
anon_subject_75,659f04805339f753c1b65235,65a0478029b65b56eb97c721,26,0.0-3.0-0.8,85297,2337,"<div style=""font-size:20px;""><p>Could someone paint a house using incantations?</p></div>",0,8,14,Painting a house using,paint a house using,Can you paint a house using,[NP] painted a house using,a brush,a mop,a planet,incantations,before,questions,tool,critical,html-keyboard-response,0.2754083449016684,no,impossible_magic,Could someone paint a house using incantations?,session-65a04919e5681,True,-0.5111094170660349
anon_subject_75,659f04805339f753c1b65235,65a0478029b65b56eb97c721,28,0.0-3.0-0.9,90160,3854,"<div style=""font-size:20px;""><p>Could someone knit a scarf using sadness?</p></div>",0,15,27,Knitting a scarf using,knit a scarf using,Can you knit a scarf using,[NP] knitted a scarf using,yarn,wire,lava,telepathy,for,sadness,material,critical,html-keyboard-response,0.2754083449016684,no,inconceivable_semantic,Could someone knit a scarf using sadness?,session-65a04919e5681,True,0.07303396743108326
anon_subject_75,659f04805339f753c1b65235,65a0478029b65b56eb97c721,30,0.0-3.0-0.10,97393,6228,"<div style=""font-size:20px;""><p>Could someone wash dishes using lightning?</p></div>",0,3,5,Washing dishes using,wash dishes using,Can you wash dishes using,[NP] washed dishes using,soap,rain,lightning,fairies,fell,arithmetic,tool,critical,html-keyboard-response,0.2754083449016684,no,impossible_physics,Could someone wash dishes using lightning?,session-65a04919e5681,True,0.9871779323593353
anon_subject_75,659f04805339f753c1b65235,65a0478029b65b56eb97c721,32,0.0-3.0-0.11,101961,3552,"<div style=""font-size:20px;""><p>Could someone bake a cake using a refrigerator?</p></div>",0,1,1,Baking a cake using,bake a cake using,Can you bake a cake using,[NP] baked a cake using,an oven,an airfryer,a refrigerator,superpowers,grasp,anger,tool,critical,html-keyboard-response,0.2754083449016684,no,impossible_physics,Could someone bake a cake using a refrigerator?,session-65a04919e5681,True,-0.04325561867183675
anon_subject_75,659f04805339f753c1b65235,65a0478029b65b56eb97c721,34,0.0-3.0-0.12,107527,4550,"<div style=""font-size:20px;""><p>Could someone brew coffee using water?</p></div>",1,7,13,Brewing coffee using,brew coffee using,Can you brew coffee using,[NP] brewed coffee using,water,soda,glue,lightsabers,into,numbers,tool,critical,html-keyboard-response,0.2754083449016684,yes,probable,Could someone brew coffee using water?,session-65a04919e5681,True,0.3410391062643029
anon_subject_75,659f04805339f753c1b65235,65a0478029b65b56eb97c721,36,0.0-3.0-0.13,110448,1907,"<div style=""font-size:20px;""><p>Could someone start a fire using kindling?</p></div>",1,12,23,Starting a fire using,start a fire using,Can you start a fire using,[NP] started a fire using,kindling,furniture,milk,enchantments,sometimes,traffic,tool,critical,html-keyboard-response,0.2754083449016684,yes,probable,Could someone start a fire using kindling?,session-65a04919e5681,True,-0.67668730456357
anon_subject_75,659f04805339f753c1b65235,65a0478029b65b56eb97c721,38,0.0-3.0-0.14,112968,1508,"<div style=""font-size:20px;""><p>Could someone construct a tower using laughter?</p></div>",0,14,26,Constructing a tower using,construct a tower using,Can you construct a tower using,[NP] constructed a tower using,concrete,blocks,a lake,[POSS] mind,while,laughter,material,critical,html-keyboard-response,0.2754083449016684,no,inconceivable_semantic,Could someone construct a tower using laughter?,session-65a04919e5681,True,-0.8303281815670968
anon_subject_75,659f04805339f753c1b65235,65a0478029b65b56eb97c721,40,0.0-3.0-0.15,118026,4042,"<div style=""font-size:20px;""><p>Could someone seal a box using magnets?</p></div>",1,9,17,Sealing a box using,seal a box using,Can you seal a box using,[NP] sealed a box using,tape,magnets,wine,sorcery,do,jokes,tool,critical,html-keyboard-response,0.2754083449016684,yes,improbable,Could someone seal a box using magnets?,session-65a04919e5681,True,0.1454261601044242
anon_subject_75,659f04805339f753c1b65235,65a0478029b65b56eb97c721,42,0.0-3.0-0.16,128353,9323,"<div style=""font-size:20px;""><p>Could someone fly a kite using witchcraft?</p></div>",1,4,7,Flying a kite using,fly a kite using,Can you fly a kite using,[NP] flew a kite using,string,dental floss,lead,witchcraft,give,a sound,tool,critical,html-keyboard-response,0.2754083449016684,yes,impossible_magic,Could someone fly a kite using witchcraft?,session-65a04919e5681,False,2.1789536574869426
anon_subject_75,659f04805339f753c1b65235,65a0478029b65b56eb97c721,44,0.0-3.0-0.17,139672,10315,"<div style=""font-size:20px;""><p>Could someone grow vegetables in a potion?</p></div>",0,6,9,Growing vegetables in,grow vegetables in,Can you grow vegetables in,[NP] grew vegetables in,soil,sand,bleach,a potion,become,justice,material,critical,html-keyboard-response,0.2754083449016684,no,impossible_magic,Could someone grow vegetables in a potion?,session-65a04919e5681,True,2.5609379932952097
anon_subject_51,659f04805339f753c1b65235,65a03fae15177d3861dbe570,10,0.0-3.0-0.0,40820,2311,"<div style=""font-size:20px;""><p>Could someone draw a picture using a smell?</p></div>",0,18,30,Drawing a picture using,draw a picture using,Can you draw a picture using,[NP] drew a picture using,a pencil,lipstick,a mountain,magic,always,a smell,tool,critical,html-keyboard-response,0.3763055864166535,no,inconceivable_semantic,Could someone draw a picture using a smell?,session-65a04040ce87a,True,-0.6054549244951746
anon_subject_51,659f04805339f753c1b65235,65a03fae15177d3861dbe570,12,0.0-3.0-0.1,44402,2575,"<div style=""font-size:20px;""><p>Could someone brew coffee using into?</p></div>",0,7,13,Brewing coffee using,brew coffee using,Can you brew coffee using,[NP] brewed coffee using,water,soda,glue,lightsabers,into,numbers,tool,critical,html-keyboard-response,0.3763055864166535,no,inconceivable_syntactic,Could someone brew coffee using into?,session-65a04040ce87a,True,-0.3576834982808214
anon_subject_51,659f04805339f753c1b65235,65a03fae15177d3861dbe570,14,0.0-3.0-0.2,50557,5153,"<div style=""font-size:20px;""><p>Could someone paint a house using before?</p></div>",0,8,14,Painting a house using,paint a house using,Can you paint a house using,[NP] painted a house using,a brush,a mop,a planet,incantations,before,questions,tool,critical,html-keyboard-response,0.3763055864166535,no,inconceivable_syntactic,Could someone paint a house using before?,session-65a04040ce87a,True,2.061842019827521
anon_subject_51,659f04805339f753c1b65235,65a03fae15177d3861dbe570,16,0.0-3.0-0.3,54877,3319,"<div style=""font-size:20px;""><p>Could someone shovel a driveway full of except?</p></div>",1,13,25,Shoveling a driveway full of,shovel a driveway full of,Can you shovel a driveway full of,[NP] shoveled a driveway full of,snow,ice,sunshine,ogres,except,rumors,material,critical,html-keyboard-response,0.3763055864166535,yes,inconceivable_syntactic,Could someone shovel a driveway full of except?,session-65a04040ce87a,False,0.3405814301414465
anon_subject_51,659f04805339f753c1b65235,65a03fae15177d3861dbe570,18,0.0-3.0-0.4,58738,2860,"<div style=""font-size:20px;""><p>Could someone tow a car using aliens?</p></div>",1,11,22,Towing a car using,tow a car using,Can you tow a car using,[NP] towed a car using,a truck,a horse,a butterfly,aliens,then,freedom,tool,critical,html-keyboard-response,0.3763055864166535,yes,impossible_magic,Could someone tow a car using aliens?,session-65a04040ce87a,False,-0.09020298134487202
anon_subject_51,659f04805339f753c1b65235,65a03fae15177d3861dbe570,20,0.0-3.0-0.5,62450,2701,"<div style=""font-size:20px;""><p>Could someone wash their hair with mermaids?</p></div>",0,16,28,Washing your hair with,wash your hair with,Can you wash your hair with,[NP] washed [POSS] hair with,shampoo,detergent,air,mermaids,though,minutes,tool,critical,html-keyboard-response,0.3763055864166535,no,impossible_magic,Could someone wash their hair with mermaids?,session-65a04040ce87a,True,-0.23942895395124378
anon_subject_51,659f04805339f753c1b65235,65a03fae15177d3861dbe570,22,0.0-3.0-0.6,66602,3141,"<div style=""font-size:20px;""><p>Could someone fly a kite using string?</p></div>",1,4,7,Flying a kite using,fly a kite using,Can you fly a kite using,[NP] flew a kite using,string,dental floss,lead,witchcraft,give,a sound,tool,critical,html-keyboard-response,0.3763055864166535,yes,probable,Could someone fly a kite using string?,session-65a04040ce87a,True,0.1735234230726781
anon_subject_51,659f04805339f753c1b65235,65a03fae15177d3861dbe570,24,0.0-3.0-0.7,72684,5074,"<div style=""font-size:20px;""><p>Could someone chill a drink using pixies?</p></div>",0,2,4,Chilling a drink using,chill a drink using,Can you chill a drink using,[NP] chilled a drink using,ice,snow,fire,pixies,at,tomorrow,tool,critical,html-keyboard-response,0.3763055864166535,no,impossible_magic,Could someone chill a drink using pixies?,session-65a04040ce87a,True,1.9876982975891349
anon_subject_51,659f04805339f753c1b65235,65a03fae15177d3861dbe570,26,0.0-3.0-0.8,78013,4319,"<div style=""font-size:20px;""><p>Could someone start a fire using furniture?</p></div>",1,12,23,Starting a fire using,start a fire using,Can you start a fire using,[NP] started a fire using,kindling,furniture,milk,enchantments,sometimes,traffic,tool,critical,html-keyboard-response,0.3763055864166535,yes,improbable,Could someone start a fire using furniture?,session-65a04040ce87a,True,1.279109559741269
anon_subject_51,659f04805339f753c1b65235,65a03fae15177d3861dbe570,28,0.0-3.0-0.9,81717,2691,"<div style=""font-size:20px;""><p>Could someone craft a bowl out of clay?</p></div>",1,5,8,Crafting a bowl out of,craft a bowl out of,Can you craft a bowl out of,[NP] crafted a bowl out of,clay,mud,smoke,auras,forget,friction,material,critical,html-keyboard-response,0.3763055864166535,yes,probable,Could someone craft a bowl out of clay?,session-65a04040ce87a,True,-0.24881423524724203
anon_subject_51,659f04805339f753c1b65235,65a03fae15177d3861dbe570,30,0.0-3.0-0.10,85024,2302,"<div style=""font-size:20px;""><p>Could someone construct a tower using a lake?</p></div>",0,14,26,Constructing a tower using,construct a tower using,Can you construct a tower using,[NP] constructed a tower using,concrete,blocks,a lake,[POSS] mind,while,laughter,material,critical,html-keyboard-response,0.3763055864166535,no,impossible_physics,Could someone construct a tower using a lake?,session-65a04040ce87a,True,-0.613901677661573
anon_subject_51,659f04805339f753c1b65235,65a03fae15177d3861dbe570,32,0.0-3.0-0.11,88132,2097,"<div style=""font-size:20px;""><p>Could someone knit a scarf using sadness?</p></div>",0,15,27,Knitting a scarf using,knit a scarf using,Can you knit a scarf using,[NP] knitted a scarf using,yarn,wire,lava,telepathy,for,sadness,material,critical,html-keyboard-response,0.3763055864166535,no,inconceivable_semantic,Could someone knit a scarf using sadness?,session-65a04040ce87a,True,-0.8062999442295365
anon_subject_51,659f04805339f753c1b65235,65a03fae15177d3861dbe570,34,0.0-3.0-0.12,90780,1644,"<div style=""font-size:20px;""><p>Could someone wash dishes using rain?</p></div>",1,3,5,Washing dishes using,wash dishes using,Can you wash dishes using,[NP] washed dishes using,soap,rain,lightning,fairies,fell,arithmetic,tool,critical,html-keyboard-response,0.3763055864166535,yes,improbable,Could someone wash dishes using rain?,session-65a04040ce87a,True,-1.2314531869382561
anon_subject_51,659f04805339f753c1b65235,65a03fae15177d3861dbe570,36,0.0-3.0-0.13,93652,1858,"<div style=""font-size:20px;""><p>Could someone grow vegetables in bleach?</p></div>",0,6,9,Growing vegetables in,grow vegetables in,Can you grow vegetables in,[NP] grew vegetables in,soil,sand,bleach,a potion,become,justice,material,critical,html-keyboard-response,0.3763055864166535,no,impossible_physics,Could someone grow vegetables in bleach?,session-65a04040ce87a,True,-1.030608167203894
anon_subject_51,659f04805339f753c1b65235,65a03fae15177d3861dbe570,38,0.0-3.0-0.14,98892,4239,"<div style=""font-size:20px;""><p>Could someone hide a gift using a cloud?</p></div>",1,17,29,Hiding a gift using,hide a gift using,Can you hide a gift using,[NP] hid a gift using,a closet,a tarp,a cloud,invisibility,during,concepts,tool,critical,html-keyboard-response,0.3763055864166535,yes,impossible_physics,Could someone hide a gift using a cloud?,session-65a04040ce87a,False,1.2040273093732832
anon_subject_51,659f04805339f753c1b65235,65a03fae15177d3861dbe570,40,0.0-3.0-0.15,101806,1899,"<div style=""font-size:20px;""><p>Could someone construct a castle using gems?</p></div>",1,10,20,Constructing a castle using,construct a castle using,Can you construct a castle using,[NP] constructed a castle using,bricks,gems,a star,wizardry,follow,boredom,tool,critical,html-keyboard-response,0.3763055864166535,yes,improbable,Could someone construct a castle using gems?,session-65a04040ce87a,True,-0.9921285138903014
anon_subject_51,659f04805339f753c1b65235,65a03fae15177d3861dbe570,42,0.0-3.0-0.16,105254,2442,"<div style=""font-size:20px;""><p>Could someone bake a cake using an oven?</p></div>",1,1,1,Baking a cake using,bake a cake using,Can you bake a cake using,[NP] baked a cake using,an oven,an airfryer,a refrigerator,superpowers,grasp,anger,tool,critical,html-keyboard-response,0.3763055864166535,yes,probable,Could someone bake a cake using an oven?,session-65a04040ce87a,True,-0.4825077395175978
anon_subject_51,659f04805339f753c1b65235,65a03fae15177d3861dbe570,44,0.0-3.0-0.17,108849,2585,"<div style=""font-size:20px;""><p>Could someone seal a box using jokes?</p></div>",0,9,17,Sealing a box using,seal a box using,Can you seal a box using,[NP] sealed a box using,tape,magnets,wine,sorcery,do,jokes,tool,critical,html-keyboard-response,0.3763055864166535,no,inconceivable_semantic,Could someone seal a box using jokes?,session-65a04040ce87a,True,-0.3482982169848232
anon_subject_69,659f04805339f753c1b65235,65a0471c5068c51fec46d7ee,10,0.0-3.0-0.0,31250,2055,"<div style=""font-size:20px;""><p>Could someone construct a tower using concrete?</p></div>",1,14,26,Constructing a tower using,construct a tower using,Can you construct a tower using,[NP] constructed a tower using,concrete,blocks,a lake,[POSS] mind,while,laughter,material,critical,html-keyboard-response,0.492064134132981,yes,probable,Could someone construct a tower using concrete?,session-65a047aba18b0,True,-0.22928271301179323
anon_subject_69,659f04805339f753c1b65235,65a0471c5068c51fec46d7ee,12,0.0-3.0-0.1,34602,2341,"<div style=""font-size:20px;""><p>Could someone paint a house using questions?</p></div>",0,8,14,Painting a house using,paint a house using,Can you paint a house using,[NP] painted a house using,a brush,a mop,a planet,incantations,before,questions,tool,critical,html-keyboard-response,0.492064134132981,no,inconceivable_semantic,Could someone paint a house using questions?,session-65a047aba18b0,True,0.008116202230506
anon_subject_69,659f04805339f753c1b65235,65a0471c5068c51fec46d7ee,14,0.0-3.0-0.2,37170,1558,"<div style=""font-size:20px;""><p>Could someone draw a picture using lipstick?</p></div>",1,18,30,Drawing a picture using,draw a picture using,Can you draw a picture using,[NP] drew a picture using,a pencil,lipstick,a mountain,magic,always,a smell,tool,critical,html-keyboard-response,0.492064134132981,yes,improbable,Could someone draw a picture using lipstick?,session-65a047aba18b0,True,-0.641825583205579
anon_subject_69,659f04805339f753c1b65235,65a0471c5068c51fec46d7ee,16,0.0-3.0-0.3,39450,1272,"<div style=""font-size:20px;""><p>Could someone craft a bowl out of forget?</p></div>",0,5,8,Crafting a bowl out of,craft a bowl out of,Can you craft a bowl out of,[NP] crafted a bowl out of,clay,mud,smoke,auras,forget,friction,material,critical,html-keyboard-response,0.492064134132981,no,inconceivable_syntactic,Could someone craft a bowl out of forget?,session-65a047aba18b0,True,-0.8792244984478782
anon_subject_69,659f04805339f753c1b65235,65a0471c5068c51fec46d7ee,18,0.0-3.0-0.4,41985,1530,"<div style=""font-size:20px;""><p>Could someone tow a car using aliens?</p></div>",0,11,22,Towing a car using,tow a car using,Can you tow a car using,[NP] towed a car using,a truck,a horse,a butterfly,aliens,then,freedom,tool,critical,html-keyboard-response,0.492064134132981,no,impossible_magic,Could someone tow a car using aliens?,session-65a047aba18b0,True,-0.6650674350474824
anon_subject_69,659f04805339f753c1b65235,65a0471c5068c51fec46d7ee,20,0.0-3.0-0.5,44882,1879,"<div style=""font-size:20px;""><p>Could someone wash dishes using lightning?</p></div>",0,3,5,Washing dishes using,wash dishes using,Can you wash dishes using,[NP] washed dishes using,soap,rain,lightning,fairies,fell,arithmetic,tool,critical,html-keyboard-response,0.492064134132981,no,impossible_physics,Could someone wash dishes using lightning?,session-65a047aba18b0,True,-0.37537435316090045
anon_subject_69,659f04805339f753c1b65235,65a0471c5068c51fec46d7ee,22,0.0-3.0-0.6,48857,2969,"<div style=""font-size:20px;""><p>Could someone knit a scarf using for?</p></div>",0,15,27,Knitting a scarf using,knit a scarf using,Can you knit a scarf using,[NP] knitted a scarf using,yarn,wire,lava,telepathy,for,sadness,material,critical,html-keyboard-response,0.492064134132981,no,inconceivable_syntactic,Could someone knit a scarf using for?,session-65a047aba18b0,True,0.5293977363989113
anon_subject_69,659f04805339f753c1b65235,65a0471c5068c51fec46d7ee,24,0.0-3.0-0.7,51345,1479,"<div style=""font-size:20px;""><p>Could someone bake a cake using a refrigerator?</p></div>",0,1,1,Baking a cake using,bake a cake using,Can you bake a cake using,[NP] baked a cake using,an oven,an airfryer,a refrigerator,superpowers,grasp,anger,tool,critical,html-keyboard-response,0.492064134132981,no,impossible_physics,Could someone bake a cake using a refrigerator?,session-65a047aba18b0,True,-0.7074008080452351
anon_subject_69,659f04805339f753c1b65235,65a0471c5068c51fec46d7ee,26,0.0-3.0-0.8,54810,2456,"<div style=""font-size:20px;""><p>Could someone construct a castle using wizardry?</p></div>",0,10,20,Constructing a castle using,construct a castle using,Can you construct a castle using,[NP] constructed a castle using,bricks,gems,a star,wizardry,follow,boredom,tool,critical,html-keyboard-response,0.492064134132981,no,impossible_magic,Could someone construct a castle using wizardry?,session-65a047aba18b0,True,0.1035738080097522
anon_subject_69,659f04805339f753c1b65235,65a0471c5068c51fec46d7ee,28,0.0-3.0-0.9,60049,4228,"<div style=""font-size:20px;""><p>Could someone wash their hair with air?</p></div>",1,16,28,Washing your hair with,wash your hair with,Can you wash your hair with,[NP] washed [POSS] hair with,shampoo,detergent,air,mermaids,though,minutes,tool,critical,html-keyboard-response,0.492064134132981,yes,impossible_physics,Could someone wash their hair with air?,session-65a047aba18b0,False,1.5744510031473544
anon_subject_69,659f04805339f753c1b65235,65a0471c5068c51fec46d7ee,30,0.0-3.0-0.10,64657,3600,"<div style=""font-size:20px;""><p>Could someone start a fire using furniture?</p></div>",1,12,23,Starting a fire using,start a fire using,Can you start a fire using,[NP] started a fire using,kindling,furniture,milk,enchantments,sometimes,traffic,tool,critical,html-keyboard-response,0.492064134132981,yes,improbable,Could someone start a fire using furniture?,session-65a047aba18b0,True,1.0531694689789493
anon_subject_69,659f04805339f753c1b65235,65a0471c5068c51fec46d7ee,32,0.0-3.0-0.11,68186,2515,"<div style=""font-size:20px;""><p>Could someone chill a drink using pixies?</p></div>",0,2,4,Chilling a drink using,chill a drink using,Can you chill a drink using,[NP] chilled a drink using,ice,snow,fire,pixies,at,tomorrow,tool,critical,html-keyboard-response,0.492064134132981,no,impossible_magic,Could someone chill a drink using pixies?,session-65a047aba18b0,True,0.15254771010519155
anon_subject_69,659f04805339f753c1b65235,65a0471c5068c51fec46d7ee,34,0.0-3.0-0.12,70298,1100,"<div style=""font-size:20px;""><p>Could someone fly a kite using string?</p></div>",1,4,7,Flying a kite using,fly a kite using,Can you fly a kite using,[NP] flew a kite using,string,dental floss,lead,witchcraft,give,a sound,tool,critical,html-keyboard-response,0.492064134132981,yes,probable,Could someone fly a kite using string?,session-65a047aba18b0,True,-1.021995874048142
anon_subject_69,659f04805339f753c1b65235,65a0471c5068c51fec46d7ee,36,0.0-3.0-0.13,72914,1606,"<div style=""font-size:20px;""><p>Could someone seal a box using magnets?</p></div>",1,9,17,Sealing a box using,seal a box using,Can you seal a box using,[NP] sealed a box using,tape,magnets,wine,sorcery,do,jokes,tool,critical,html-keyboard-response,0.492064134132981,yes,improbable,Could someone seal a box using magnets?,session-65a047aba18b0,True,-0.6019824086194588
anon_subject_69,659f04805339f753c1b65235,65a0471c5068c51fec46d7ee,38,0.0-3.0-0.14,79810,5892,"<div style=""font-size:20px;""><p>Could someone hide a gift using concepts?</p></div>",1,17,29,Hiding a gift using,hide a gift using,Can you hide a gift using,[NP] hid a gift using,a closet,a tarp,a cloud,invisibility,during,concepts,tool,critical,html-keyboard-response,0.492064134132981,yes,inconceivable_semantic,Could someone hide a gift using concepts?,session-65a047aba18b0,False,2.9556810554661865
anon_subject_69,659f04805339f753c1b65235,65a0471c5068c51fec46d7ee,40,0.0-3.0-0.15,82970,2145,"<div style=""font-size:20px;""><p>Could someone brew coffee using numbers?</p></div>",0,7,13,Brewing coffee using,brew coffee using,Can you brew coffee using,[NP] brewed coffee using,water,soda,glue,lightsabers,into,numbers,tool,critical,html-keyboard-response,0.492064134132981,no,inconceivable_semantic,Could someone brew coffee using numbers?,session-65a047aba18b0,True,-0.15457676066281795
anon_subject_69,659f04805339f753c1b65235,65a0471c5068c51fec46d7ee,42,0.0-3.0-0.16,85586,1612,"<div style=""font-size:20px;""><p>Could someone shovel a driveway full of snow?</p></div>",1,13,25,Shoveling a driveway full of,shovel a driveway full of,Can you shovel a driveway full of,[NP] shoveled a driveway full of,snow,ice,sunshine,ogres,except,rumors,material,critical,html-keyboard-response,0.492064134132981,yes,probable,Could someone shovel a driveway full of snow?,session-65a047aba18b0,True,-0.5970020117961938
anon_subject_69,659f04805339f753c1b65235,65a0471c5068c51fec46d7ee,44,0.0-3.0-0.17,88313,1725,"<div style=""font-size:20px;""><p>Could someone grow vegetables in become?</p></div>",0,6,9,Growing vegetables in,grow vegetables in,Can you grow vegetables in,[NP] grew vegetables in,soil,sand,bleach,a potion,become,justice,material,critical,html-keyboard-response,0.492064134132981,no,inconceivable_syntactic,Could someone grow vegetables in become?,session-65a047aba18b0,True,-0.5032045382913692
anon_subject_122,659f04805339f753c1b65235,65a03fd56bac4df6251b8e9a,10,0.0-3.0-0.0,44920,2222,"<div style=""font-size:20px;""><p>Could someone start a fire using milk?</p></div>",0,12,23,Starting a fire using,start a fire using,Can you start a fire using,[NP] started a fire using,kindling,furniture,milk,enchantments,sometimes,traffic,tool,critical,html-keyboard-response,0.2970422426465522,no,impossible_physics,Could someone start a fire using milk?,session-65a0405d43889,True,-0.6797555067401851
anon_subject_122,659f04805339f753c1b65235,65a03fd56bac4df6251b8e9a,12,0.0-3.0-0.1,48609,2682,"<div style=""font-size:20px;""><p>Could someone construct a castle using boredom?</p></div>",0,10,20,Constructing a castle using,construct a castle using,Can you construct a castle using,[NP] constructed a castle using,bricks,gems,a star,wizardry,follow,boredom,tool,critical,html-keyboard-response,0.2970422426465522,no,inconceivable_semantic,Could someone construct a castle using boredom?,session-65a0405d43889,True,-0.146108441621314
anon_subject_122,659f04805339f753c1b65235,65a03fd56bac4df6251b8e9a,14,0.0-3.0-0.2,51712,2100,"<div style=""font-size:20px;""><p>Could someone bake a cake using superpowers?</p></div>",0,1,1,Baking a cake using,bake a cake using,Can you bake a cake using,[NP] baked a cake using,an oven,an airfryer,a refrigerator,superpowers,grasp,anger,tool,critical,html-keyboard-response,0.2970422426465522,no,impossible_magic,Could someone bake a cake using superpowers?,session-65a0405d43889,True,-0.8212879892282335
anon_subject_122,659f04805339f753c1b65235,65a03fd56bac4df6251b8e9a,16,0.0-3.0-0.3,57321,4602,"<div style=""font-size:20px;""><p>Could someone construct a tower using [POSS] mind?</p></div>",0,14,26,Constructing a tower using,construct a tower using,Can you construct a tower using,[NP] constructed a tower using,concrete,blocks,a lake,[POSS] mind,while,laughter,material,critical,html-keyboard-response,0.2970422426465522,no,impossible_magic,Could someone construct a tower using [POSS] mind?,session-65a0405d43889,True,2.0812880040922352
anon_subject_122,659f04805339f753c1b65235,65a03fd56bac4df6251b8e9a,18,0.0-3.0-0.4,61543,3215,"<div style=""font-size:20px;""><p>Could someone wash dishes using lightning?</p></div>",0,3,5,Washing dishes using,wash dishes using,Can you wash dishes using,[NP] washed dishes using,soap,rain,lightning,fairies,fell,arithmetic,tool,critical,html-keyboard-response,0.2970422426465522,no,impossible_physics,Could someone wash dishes using lightning?,session-65a0405d43889,True,0.47222609252729103
anon_subject_122,659f04805339f753c1b65235,65a03fd56bac4df6251b8e9a,20,0.0-3.0-0.5,67250,4699,"<div style=""font-size:20px;""><p>Could someone draw a picture using a smell?</p></div>",1,18,30,Drawing a picture using,draw a picture using,Can you draw a picture using,[NP] drew a picture using,a pencil,lipstick,a mountain,magic,always,a smell,tool,critical,html-keyboard-response,0.2970422426465522,yes,inconceivable_semantic,Could someone draw a picture using a smell?,session-65a0405d43889,False,2.193817928693388
anon_subject_122,659f04805339f753c1b65235,65a03fd56bac4df6251b8e9a,22,0.0-3.0-0.6,70056,1788,"<div style=""font-size:20px;""><p>Could someone paint a house using a brush?</p></div>",1,8,14,Painting a house using,paint a house using,Can you paint a house using,[NP] painted a house using,a brush,a mop,a planet,incantations,before,questions,tool,critical,html-keyboard-response,0.2970422426465522,yes,probable,Could someone paint a house using a brush?,session-65a0405d43889,True,-1.1832399116566852
anon_subject_122,659f04805339f753c1b65235,65a03fd56bac4df6251b8e9a,24,0.0-3.0-0.7,73608,2545,"<div style=""font-size:20px;""><p>Could someone craft a bowl out of forget?</p></div>",0,5,8,Crafting a bowl out of,craft a bowl out of,Can you craft a bowl out of,[NP] crafted a bowl out of,clay,mud,smoke,auras,forget,friction,material,critical,html-keyboard-response,0.2970422426465522,no,inconceivable_syntactic,Could someone craft a bowl out of forget?,session-65a0405d43889,True,-0.30504245884149955
anon_subject_122,659f04805339f753c1b65235,65a03fd56bac4df6251b8e9a,26,0.0-3.0-0.8,77136,2525,"<div style=""font-size:20px;""><p>Could someone chill a drink using fire?</p></div>",0,2,4,Chilling a drink using,chill a drink using,Can you chill a drink using,[NP] chilled a drink using,ice,snow,fire,pixies,at,tomorrow,tool,critical,html-keyboard-response,0.2970422426465522,no,impossible_physics,Could someone chill a drink using fire?,session-65a0405d43889,True,-0.32824450515101566
anon_subject_122,659f04805339f753c1b65235,65a03fd56bac4df6251b8e9a,28,0.0-3.0-0.9,80696,2554,"<div style=""font-size:20px;""><p>Could someone fly a kite using string?</p></div>",1,4,7,Flying a kite using,fly a kite using,Can you fly a kite using,[NP] flew a kite using,string,dental floss,lead,witchcraft,give,a sound,tool,critical,html-keyboard-response,0.2970422426465522,yes,probable,Could someone fly a kite using string?,session-65a0405d43889,True,-0.2946015380022173
anon_subject_122,659f04805339f753c1b65235,65a03fd56bac4df6251b8e9a,30,0.0-3.0-0.10,84937,3235,"<div style=""font-size:20px;""><p>Could someone brew coffee using water?</p></div>",1,7,13,Brewing coffee using,brew coffee using,Can you brew coffee using,[NP] brewed coffee using,water,soda,glue,lightsabers,into,numbers,tool,critical,html-keyboard-response,0.2970422426465522,yes,probable,Could someone brew coffee using water?,session-65a0405d43889,True,0.49542813883680714
anon_subject_122,659f04805339f753c1b65235,65a03fd56bac4df6251b8e9a,32,0.0-3.0-0.11,87969,2016,"<div style=""font-size:20px;""><p>Could someone tow a car using a horse?</p></div>",1,11,22,Towing a car using,tow a car using,Can you tow a car using,[NP] towed a car using,a truck,a horse,a butterfly,aliens,then,freedom,tool,critical,html-keyboard-response,0.2970422426465522,yes,improbable,Could someone tow a car using a horse?,session-65a0405d43889,True,-0.9187365837282013
anon_subject_122,659f04805339f753c1b65235,65a03fd56bac4df6251b8e9a,34,0.0-3.0-0.12,90991,2018,"<div style=""font-size:20px;""><p>Could someone knit a scarf using sadness?</p></div>",0,15,27,Knitting a scarf using,knit a scarf using,Can you knit a scarf using,[NP] knitted a scarf using,yarn,wire,lava,telepathy,for,sadness,material,critical,html-keyboard-response,0.2970422426465522,no,inconceivable_semantic,Could someone knit a scarf using sadness?,session-65a0405d43889,True,-0.9164163790972497
anon_subject_122,659f04805339f753c1b65235,65a03fd56bac4df6251b8e9a,36,0.0-3.0-0.13,94288,2289,"<div style=""font-size:20px;""><p>Could someone hide a gift using a tarp?</p></div>",1,17,29,Hiding a gift using,hide a gift using,Can you hide a gift using,[NP] hid a gift using,a closet,a tarp,a cloud,invisibility,during,concepts,tool,critical,html-keyboard-response,0.2970422426465522,yes,improbable,Could someone hide a gift using a tarp?,session-65a0405d43889,True,-0.6020286516033061
anon_subject_122,659f04805339f753c1b65235,65a03fd56bac4df6251b8e9a,38,0.0-3.0-0.14,97688,2387,"<div style=""font-size:20px;""><p>Could someone shovel a driveway full of ice?</p></div>",1,13,25,Shoveling a driveway full of,shovel a driveway full of,Can you shovel a driveway full of,[NP] shoveled a driveway full of,snow,ice,sunshine,ogres,except,rumors,material,critical,html-keyboard-response,0.2970422426465522,yes,improbable,Could someone shovel a driveway full of ice?,session-65a0405d43889,True,-0.488338624686677
anon_subject_122,659f04805339f753c1b65235,65a03fd56bac4df6251b8e9a,40,0.0-3.0-0.15,102785,4087,"<div style=""font-size:20px;""><p>Could someone seal a box using do?</p></div>",0,9,17,Sealing a box using,seal a box using,Can you seal a box using,[NP] sealed a box using,tape,magnets,wine,sorcery,do,jokes,tool,critical,html-keyboard-response,0.2970422426465522,no,inconceivable_syntactic,Could someone seal a box using do?,session-65a0405d43889,True,1.4838353116221945
anon_subject_122,659f04805339f753c1b65235,65a03fd56bac4df6251b8e9a,42,0.0-3.0-0.16,106449,2648,"<div style=""font-size:20px;""><p>Could someone wash their hair with mermaids?</p></div>",0,16,28,Washing your hair with,wash your hair with,Can you wash your hair with,[NP] washed [POSS] hair with,shampoo,detergent,air,mermaids,though,minutes,tool,critical,html-keyboard-response,0.2970422426465522,no,impossible_magic,Could someone wash their hair with mermaids?,session-65a0405d43889,True,-0.18555192034749143
anon_subject_122,659f04805339f753c1b65235,65a03fd56bac4df6251b8e9a,44,0.0-3.0-0.17,110384,2931,"<div style=""font-size:20px;""><p>Could someone grow vegetables in become?</p></div>",0,6,9,Growing vegetables in,grow vegetables in,Can you grow vegetables in,[NP] grew vegetables in,soil,sand,bleach,a potion,become,justice,material,critical,html-keyboard-response,0.2970422426465522,no,inconceivable_syntactic,Could someone grow vegetables in become?,session-65a0405d43889,True,0.1427570349321619
anon_subject_260,659f04805339f753c1b65235,65a05a7e0f99dc411697c9da,10,0.0-3.0-0.0,38274,1450,"<div style=""font-size:20px;""><p>Could someone draw a picture using magic?</p></div>",0,18,30,Drawing a picture using,draw a picture using,Can you draw a picture using,[NP] drew a picture using,a pencil,lipstick,a mountain,magic,always,a smell,tool,critical,html-keyboard-response,0.4164250313906001,no,impossible_magic,Could someone draw a picture using magic?,session-65a05ae85fd46,True,0.20279442882744225
anon_subject_260,659f04805339f753c1b65235,65a05a7e0f99dc411697c9da,12,0.0-3.0-0.1,40769,1482,"<div style=""font-size:20px;""><p>Could someone construct a castle using bricks?</p></div>",1,10,20,Constructing a castle using,construct a castle using,Can you construct a castle using,[NP] constructed a castle using,bricks,gems,a star,wizardry,follow,boredom,tool,critical,html-keyboard-response,0.4164250313906001,yes,probable,Could someone construct a castle using bricks?,session-65a05ae85fd46,True,0.33830439519009503
anon_subject_260,659f04805339f753c1b65235,65a05a7e0f99dc411697c9da,14,0.0-3.0-0.2,42931,1148,"<div style=""font-size:20px;""><p>Could someone bake a cake using superpowers?</p></div>",0,1,1,Baking a cake using,bake a cake using,Can you bake a cake using,[NP] baked a cake using,an oven,an airfryer,a refrigerator,superpowers,grasp,anger,tool,critical,html-keyboard-response,0.4164250313906001,no,impossible_magic,Could someone bake a cake using superpowers?,session-65a05ae85fd46,True,-1.0760808787200933
anon_subject_260,659f04805339f753c1b65235,65a05a7e0f99dc411697c9da,16,0.0-3.0-0.3,45702,1764,"<div style=""font-size:20px;""><p>Could someone chill a drink using fire?</p></div>",1,2,4,Chilling a drink using,chill a drink using,Can you chill a drink using,[NP] chilled a drink using,ice,snow,fire,pixies,at,tomorrow,tool,critical,html-keyboard-response,0.4164250313906001,yes,impossible_physics,Could someone chill a drink using fire?,session-65a05ae85fd46,False,1.5324859737609726
anon_subject_260,659f04805339f753c1b65235,65a05a7e0f99dc411697c9da,18,0.0-3.0-0.4,48543,1834,"<div style=""font-size:20px;""><p>Could someone fly a kite using lead?</p></div>",0,4,7,Flying a kite using,fly a kite using,Can you fly a kite using,[NP] flew a kite using,string,dental floss,lead,witchcraft,give,a sound,tool,critical,html-keyboard-response,0.4164250313906001,no,impossible_physics,Could someone fly a kite using lead?,session-65a05ae85fd46,True,1.8289140251792755
anon_subject_260,659f04805339f753c1b65235,65a05a7e0f99dc411697c9da,20,0.0-3.0-0.5,51187,1631,"<div style=""font-size:20px;""><p>Could someone craft a bowl out of mud?</p></div>",1,5,8,Crafting a bowl out of,craft a bowl out of,Can you craft a bowl out of,[NP] crafted a bowl out of,clay,mud,smoke,auras,forget,friction,material,critical,html-keyboard-response,0.4164250313906001,yes,improbable,Could someone craft a bowl out of mud?,session-65a05ae85fd46,True,0.9692726760661969
anon_subject_260,659f04805339f753c1b65235,65a05a7e0f99dc411697c9da,22,0.0-3.0-0.6,53231,1036,"<div style=""font-size:20px;""><p>Could someone brew coffee using water?</p></div>",1,7,13,Brewing coffee using,brew coffee using,Can you brew coffee using,[NP] brewed coffee using,water,soda,glue,lightsabers,into,numbers,tool,critical,html-keyboard-response,0.4164250313906001,yes,probable,Could someone brew coffee using water?,session-65a05ae85fd46,True,-1.550365760989378
anon_subject_260,659f04805339f753c1b65235,65a05a7e0f99dc411697c9da,24,0.0-3.0-0.7,55889,1654,"<div style=""font-size:20px;""><p>Could someone wash dishes using arithmetic?</p></div>",0,3,5,Washing dishes using,wash dishes using,Can you wash dishes using,[NP] washed dishes using,soap,rain,lightning,fairies,fell,arithmetic,tool,critical,html-keyboard-response,0.4164250313906001,no,inconceivable_semantic,Could someone wash dishes using arithmetic?,session-65a05ae85fd46,True,1.0666704643893536
anon_subject_260,659f04805339f753c1b65235,65a05a7e0f99dc411697c9da,26,0.0-3.0-0.8,57986,1088,"<div style=""font-size:20px;""><p>Could someone tow a car using a truck?</p></div>",1,11,22,Towing a car using,tow a car using,Can you tow a car using,[NP] towed a car using,a truck,a horse,a butterfly,aliens,then,freedom,tool,critical,html-keyboard-response,0.4164250313906001,yes,probable,Could someone tow a car using a truck?,session-65a05ae85fd46,True,-1.3301620656500672
anon_subject_260,659f04805339f753c1b65235,65a05a7e0f99dc411697c9da,28,0.0-3.0-0.9,60296,1302,"<div style=""font-size:20px;""><p>Could someone paint a house using before?</p></div>",1,8,14,Painting a house using,paint a house using,Can you paint a house using,[NP] painted a house using,a brush,a mop,a planet,incantations,before,questions,tool,critical,html-keyboard-response,0.4164250313906001,yes,inconceivable_syntactic,Could someone paint a house using before?,session-65a05ae85fd46,False,-0.42393916559982675
anon_subject_260,659f04805339f753c1b65235,65a05a7e0f99dc411697c9da,30,0.0-3.0-0.10,62746,1438,"<div style=""font-size:20px;""><p>Could someone grow vegetables in justice?</p></div>",0,6,9,Growing vegetables in,grow vegetables in,Can you grow vegetables in,[NP] grew vegetables in,soil,sand,bleach,a potion,become,justice,material,critical,html-keyboard-response,0.4164250313906001,no,inconceivable_semantic,Could someone grow vegetables in justice?,session-65a05ae85fd46,True,0.15197819144144747
anon_subject_260,659f04805339f753c1b65235,65a05a7e0f99dc411697c9da,32,0.0-3.0-0.11,65354,1606,"<div style=""font-size:20px;""><p>Could someone construct a tower using [POSS] mind?</p></div>",0,14,26,Constructing a tower using,construct a tower using,Can you construct a tower using,[NP] constructed a tower using,concrete,blocks,a lake,[POSS] mind,while,laughter,material,critical,html-keyboard-response,0.4164250313906001,no,impossible_magic,Could someone construct a tower using [POSS] mind?,session-65a05ae85fd46,True,0.8634055148453745
anon_subject_260,659f04805339f753c1b65235,65a05a7e0f99dc411697c9da,34,0.0-3.0-0.12,67791,1430,"<div style=""font-size:20px;""><p>Could someone wash their hair with though?</p></div>",0,16,28,Washing your hair with,wash your hair with,Can you wash your hair with,[NP] washed [POSS] hair with,shampoo,detergent,air,mermaids,though,minutes,tool,critical,html-keyboard-response,0.4164250313906001,no,inconceivable_syntactic,Could someone wash their hair with though?,session-65a05ae85fd46,True,0.1181006998507843
anon_subject_260,659f04805339f753c1b65235,65a05a7e0f99dc411697c9da,36,0.0-3.0-0.13,70019,1212,"<div style=""font-size:20px;""><p>Could someone knit a scarf using for?</p></div>",0,15,27,Knitting a scarf using,knit a scarf using,Can you knit a scarf using,[NP] knitted a scarf using,yarn,wire,lava,telepathy,for,sadness,material,critical,html-keyboard-response,0.4164250313906001,no,inconceivable_syntactic,Could someone knit a scarf using for?,session-65a05ae85fd46,True,-0.8050609459947877
anon_subject_260,659f04805339f753c1b65235,65a05a7e0f99dc411697c9da,38,0.0-3.0-0.14,72441,1408,"<div style=""font-size:20px;""><p>Could someone seal a box using wine?</p></div>",0,9,17,Sealing a box using,seal a box using,Can you seal a box using,[NP] sealed a box using,tape,magnets,wine,sorcery,do,jokes,tool,critical,html-keyboard-response,0.4164250313906001,no,impossible_physics,Could someone seal a box using wine?,session-65a05ae85fd46,True,0.024937597976460512
anon_subject_260,659f04805339f753c1b65235,65a05a7e0f99dc411697c9da,40,0.0-3.0-0.15,74572,1125,"<div style=""font-size:20px;""><p>Could someone shovel a driveway full of rumors?</p></div>",0,13,25,Shoveling a driveway full of,shovel a driveway full of,Can you shovel a driveway full of,[NP] shoveled a driveway full of,snow,ice,sunshine,ogres,except,rumors,material,critical,html-keyboard-response,0.4164250313906001,no,inconceivable_semantic,Could someone shovel a driveway full of rumors?,session-65a05ae85fd46,True,-1.1734786670432498
anon_subject_260,659f04805339f753c1b65235,65a05a7e0f99dc411697c9da,42,0.0-3.0-0.16,76774,1199,"<div style=""font-size:20px;""><p>Could someone start a fire using furniture?</p></div>",1,12,23,Starting a fire using,start a fire using,Can you start a fire using,[NP] started a fire using,kindling,furniture,milk,enchantments,sometimes,traffic,tool,critical,html-keyboard-response,0.4164250313906001,yes,improbable,Could someone start a fire using furniture?,session-65a05ae85fd46,True,-0.8601118698296154
anon_subject_260,659f04805339f753c1b65235,65a05a7e0f99dc411697c9da,44,0.0-3.0-0.17,79211,1431,"<div style=""font-size:20px;""><p>Could someone hide a gift using a tarp?</p></div>",1,17,29,Hiding a gift using,hide a gift using,Can you hide a gift using,[NP] hid a gift using,a closet,a tarp,a cloud,invisibility,during,concepts,tool,critical,html-keyboard-response,0.4164250313906001,yes,improbable,Could someone hide a gift using a tarp?,session-65a05ae85fd46,True,0.12233538629961718
anon_subject_18,659f04805339f753c1b65235,65a03fde5747bb3166d4efa7,18,0.0-3.0-0.0,71272,2064,"<div style=""font-size:20px;""><p>Could someone hide a gift using a tarp?</p></div>",1,17,29,Hiding a gift using,hide a gift using,Can you hide a gift using,[NP] hid a gift using,a closet,a tarp,a cloud,invisibility,during,concepts,tool,critical,html-keyboard-response,0.2208630282181236,yes,improbable,Could someone hide a gift using a tarp?,session-65a0406e32d44,True,0.11991515109782126
anon_subject_18,659f04805339f753c1b65235,65a03fde5747bb3166d4efa7,20,0.0-3.0-0.1,74241,1961,"<div style=""font-size:20px;""><p>Could someone wash their hair with mermaids?</p></div>",0,16,28,Washing your hair with,wash your hair with,Can you wash your hair with,[NP] washed [POSS] hair with,shampoo,detergent,air,mermaids,though,minutes,tool,critical,html-keyboard-response,0.2208630282181236,no,impossible_magic,Could someone wash their hair with mermaids?,session-65a0406e32d44,True,-0.1469788346589139
anon_subject_18,659f04805339f753c1b65235,65a03fde5747bb3166d4efa7,22,0.0-3.0-0.2,78156,2908,"<div style=""font-size:20px;""><p>Could someone chill a drink using snow?</p></div>",1,2,4,Chilling a drink using,chill a drink using,Can you chill a drink using,[NP] chilled a drink using,ice,snow,fire,pixies,at,tomorrow,tool,critical,html-keyboard-response,0.2208630282181236,yes,improbable,Could someone chill a drink using snow?,session-65a0406e32d44,True,2.306891112055923
anon_subject_18,659f04805339f753c1b65235,65a03fde5747bb3166d4efa7,24,0.0-3.0-0.3,81847,2682,"<div style=""font-size:20px;""><p>Could someone start a fire using traffic?</p></div>",0,12,23,Starting a fire using,start a fire using,Can you start a fire using,[NP] started a fire using,kindling,furniture,milk,enchantments,sometimes,traffic,tool,critical,html-keyboard-response,0.2208630282181236,no,inconceivable_semantic,Could someone start a fire using traffic?,session-65a0406e32d44,True,1.7212790656382322
anon_subject_18,659f04805339f753c1b65235,65a03fde5747bb3166d4efa7,26,0.0-3.0-0.4,84770,1916,"<div style=""font-size:20px;""><p>Could someone knit a scarf using lava?</p></div>",0,15,27,Knitting a scarf using,knit a scarf using,Can you knit a scarf using,[NP] knitted a scarf using,yarn,wire,lava,telepathy,for,sadness,material,critical,html-keyboard-response,0.2208630282181236,no,impossible_physics,Could someone knit a scarf using lava?,session-65a0406e32d44,True,-0.2635830031934098
anon_subject_18,659f04805339f753c1b65235,65a03fde5747bb3166d4efa7,28,0.0-3.0-0.5,87850,2074,"<div style=""font-size:20px;""><p>Could someone draw a picture using a pencil?</p></div>",1,18,30,Drawing a picture using,draw a picture using,Can you draw a picture using,[NP] drew a picture using,a pencil,lipstick,a mountain,magic,always,a smell,tool,critical,html-keyboard-response,0.2208630282181236,yes,probable,Could someone draw a picture using a pencil?,session-65a0406e32d44,True,0.14582718854993149
anon_subject_18,659f04805339f753c1b65235,65a03fde5747bb3166d4efa7,30,0.0-3.0-0.6,91070,2214,"<div style=""font-size:20px;""><p>Could someone construct a tower using concrete?</p></div>",1,14,26,Constructing a tower using,construct a tower using,Can you construct a tower using,[NP] constructed a tower using,concrete,blocks,a lake,[POSS] mind,while,laughter,material,critical,html-keyboard-response,0.2208630282181236,yes,probable,Could someone construct a tower using concrete?,session-65a0406e32d44,True,0.5085957128794745
anon_subject_18,659f04805339f753c1b65235,65a03fde5747bb3166d4efa7,32,0.0-3.0-0.7,94085,2009,"<div style=""font-size:20px;""><p>Could someone construct a castle using wizardry?</p></div>",0,10,20,Constructing a castle using,construct a castle using,Can you construct a castle using,[NP] constructed a castle using,bricks,gems,a star,wizardry,follow,boredom,tool,critical,html-keyboard-response,0.2208630282181236,no,impossible_magic,Could someone construct a castle using wizardry?,session-65a0406e32d44,True,-0.022601054888784885
anon_subject_18,659f04805339f753c1b65235,65a03fde5747bb3166d4efa7,34,0.0-3.0-0.8,96739,1648,"<div style=""font-size:20px;""><p>Could someone brew coffee using into?</p></div>",0,7,13,Brewing coffee using,brew coffee using,Can you brew coffee using,[NP] brewed coffee using,water,soda,glue,lightsabers,into,numbers,tool,critical,html-keyboard-response,0.2208630282181236,no,inconceivable_syntactic,Could someone brew coffee using into?,session-65a0406e32d44,True,-0.9580256069099634
anon_subject_18,659f04805339f753c1b65235,65a03fde5747bb3166d4efa7,36,0.0-3.0-0.9,99284,1537,"<div style=""font-size:20px;""><p>Could someone bake a cake using grasp?</p></div>",0,1,1,Baking a cake using,bake a cake using,Can you bake a cake using,[NP] baked a cake using,an oven,an airfryer,a refrigerator,superpowers,grasp,anger,tool,critical,html-keyboard-response,0.2208630282181236,no,inconceivable_syntactic,Could someone bake a cake using grasp?,session-65a0406e32d44,True,-1.2456492226283868
anon_subject_18,659f04805339f753c1b65235,65a03fde5747bb3166d4efa7,38,0.0-3.0-0.10,102680,2389,"<div style=""font-size:20px;""><p>Could someone tow a car using a truck?</p></div>",1,11,22,Towing a car using,tow a car using,Can you tow a car using,[NP] towed a car using,a truck,a horse,a butterfly,aliens,then,freedom,tool,critical,html-keyboard-response,0.2208630282181236,yes,probable,Could someone tow a car using a truck?,session-65a0406e32d44,True,0.9620563682914031
anon_subject_18,659f04805339f753c1b65235,65a03fde5747bb3166d4efa7,40,0.0-3.0-0.11,105359,1671,"<div style=""font-size:20px;""><p>Could someone fly a kite using witchcraft?</p></div>",0,4,7,Flying a kite using,fly a kite using,Can you fly a kite using,[NP] flew a kite using,string,dental floss,lead,witchcraft,give,a sound,tool,critical,html-keyboard-response,0.2208630282181236,no,impossible_magic,Could someone fly a kite using witchcraft?,session-65a0406e32d44,True,-0.89842792077011
anon_subject_18,659f04805339f753c1b65235,65a03fde5747bb3166d4efa7,42,0.0-3.0-0.12,108171,1809,"<div style=""font-size:20px;""><p>Could someone shovel a driveway full of sunshine?</p></div>",0,13,25,Shoveling a driveway full of,shovel a driveway full of,Can you shovel a driveway full of,[NP] shoveled a driveway full of,snow,ice,sunshine,ogres,except,rumors,material,critical,html-keyboard-response,0.2208630282181236,no,impossible_physics,Could someone shovel a driveway full of sunshine?,session-65a0406e32d44,True,-0.5408418039309891
anon_subject_18,659f04805339f753c1b65235,65a03fde5747bb3166d4efa7,44,0.0-3.0-0.13,111004,1828,"<div style=""font-size:20px;""><p>Could someone grow vegetables in become?</p></div>",0,6,9,Growing vegetables in,grow vegetables in,Can you grow vegetables in,[NP] grew vegetables in,soil,sand,bleach,a potion,become,justice,material,critical,html-keyboard-response,0.2208630282181236,no,inconceivable_syntactic,Could someone grow vegetables in become?,session-65a0406e32d44,True,-0.4916089327719797
anon_subject_18,659f04805339f753c1b65235,65a03fde5747bb3166d4efa7,46,0.0-3.0-0.14,114380,2368,"<div style=""font-size:20px;""><p>Could someone paint a house using a mop?</p></div>",1,8,14,Painting a house using,paint a house using,Can you paint a house using,[NP] painted a house using,a brush,a mop,a planet,incantations,before,questions,tool,critical,html-keyboard-response,0.2208630282181236,yes,improbable,Could someone paint a house using a mop?,session-65a0406e32d44,True,0.9076410896419717
anon_subject_18,659f04805339f753c1b65235,65a03fde5747bb3166d4efa7,48,0.0-3.0-0.15,117486,2099,"<div style=""font-size:20px;""><p>Could someone seal a box using jokes?</p></div>",0,9,17,Sealing a box using,seal a box using,Can you seal a box using,[NP] sealed a box using,tape,magnets,wine,sorcery,do,jokes,tool,critical,html-keyboard-response,0.2208630282181236,no,inconceivable_semantic,Could someone seal a box using jokes?,session-65a0406e32d44,True,0.210607282180207
anon_subject_18,659f04805339f753c1b65235,65a03fde5747bb3166d4efa7,50,0.0-3.0-0.16,120118,1629,"<div style=""font-size:20px;""><p>Could someone craft a bowl out of friction?</p></div>",0,5,8,Crafting a bowl out of,craft a bowl out of,Can you craft a bowl out of,[NP] crafted a bowl out of,clay,mud,smoke,auras,forget,friction,material,critical,html-keyboard-response,0.2208630282181236,no,inconceivable_semantic,Could someone craft a bowl out of friction?,session-65a0406e32d44,True,-1.0072584780689728
anon_subject_18,659f04805339f753c1b65235,65a03fde5747bb3166d4efa7,52,0.0-3.0-0.17,122638,1513,"<div style=""font-size:20px;""><p>Could someone wash dishes using lightning?</p></div>",0,3,5,Washing dishes using,wash dishes using,Can you wash dishes using,[NP] washed dishes using,soap,rain,lightning,fairies,fell,arithmetic,tool,critical,html-keyboard-response,0.2208630282181236,no,impossible_physics,Could someone wash dishes using lightning?,session-65a0406e32d44,True,-1.3078381125134513
anon_subject_148,659f04805339f753c1b65235,65a05a73420a02f3939b3822,10,0.0-3.0-0.0,41243,4447,"<div style=""font-size:20px;""><p>Could someone tow a car using then?</p></div>",0,11,22,Towing a car using,tow a car using,Can you tow a car using,[NP] towed a car using,a truck,a horse,a butterfly,aliens,then,freedom,tool,critical,html-keyboard-response,0.4798268496288027,no,inconceivable_syntactic,Could someone tow a car using then?,session-65a05aff81c21,True,2.4510488299569633
anon_subject_148,659f04805339f753c1b65235,65a05a73420a02f3939b3822,12,0.0-3.0-0.1,45108,2863,"<div style=""font-size:20px;""><p>Could someone wash their hair with air?</p></div>",0,16,28,Washing your hair with,wash your hair with,Can you wash your hair with,[NP] washed [POSS] hair with,shampoo,detergent,air,mermaids,though,minutes,tool,critical,html-keyboard-response,0.4798268496288027,no,impossible_physics,Could someone wash their hair with air?,session-65a05aff81c21,True,0.2572924186142669
anon_subject_148,659f04805339f753c1b65235,65a05a73420a02f3939b3822,14,0.0-3.0-0.2,47949,1840,"<div style=""font-size:20px;""><p>Could someone construct a tower using a lake?</p></div>",0,14,26,Constructing a tower using,construct a tower using,Can you construct a tower using,[NP] constructed a tower using,concrete,blocks,a lake,[POSS] mind,while,laughter,material,critical,html-keyboard-response,0.4798268496288027,no,impossible_physics,Could someone construct a tower using a lake?,session-65a05aff81c21,True,-1.1595085970445578
anon_subject_148,659f04805339f753c1b65235,65a05a73420a02f3939b3822,16,0.0-3.0-0.3,50987,2038,"<div style=""font-size:20px;""><p>Could someone fly a kite using witchcraft?</p></div>",0,4,7,Flying a kite using,fly a kite using,Can you fly a kite using,[NP] flew a kite using,string,dental floss,lead,witchcraft,give,a sound,tool,critical,html-keyboard-response,0.4798268496288027,no,impossible_magic,Could someone fly a kite using witchcraft?,session-65a05aff81c21,True,-0.8852890456267207
anon_subject_148,659f04805339f753c1b65235,65a05a73420a02f3939b3822,18,0.0-3.0-0.4,53788,1800,"<div style=""font-size:20px;""><p>Could someone wash dishes using fell?</p></div>",0,3,5,Washing dishes using,wash dishes using,Can you wash dishes using,[NP] washed dishes using,soap,rain,lightning,fairies,fell,arithmetic,tool,critical,html-keyboard-response,0.4798268496288027,no,inconceivable_syntactic,Could someone wash dishes using fell?,session-65a05aff81c21,True,-1.2149064862198784
anon_subject_148,659f04805339f753c1b65235,65a05a73420a02f3939b3822,20,0.0-3.0-0.5,57492,2704,"<div style=""font-size:20px;""><p>Could someone bake a cake using an oven?</p></div>",1,1,1,Baking a cake using,bake a cake using,Can you bake a cake using,[NP] baked a cake using,an oven,an airfryer,a refrigerator,superpowers,grasp,anger,tool,critical,html-keyboard-response,0.4798268496288027,yes,probable,Could someone bake a cake using an oven?,session-65a05aff81c21,True,0.037085809142367476
anon_subject_148,659f04805339f753c1b65235,65a05a73420a02f3939b3822,22,0.0-3.0-0.6,61788,3294,"<div style=""font-size:20px;""><p>Could someone seal a box using wine?</p></div>",0,9,17,Sealing a box using,seal a box using,Can you seal a box using,[NP] sealed a box using,tape,magnets,wine,sorcery,do,jokes,tool,critical,html-keyboard-response,0.4798268496288027,no,impossible_physics,Could someone seal a box using wine?,session-65a05aff81c21,True,0.8542046744783465
anon_subject_148,659f04805339f753c1b65235,65a05a73420a02f3939b3822,24,0.0-3.0-0.7,65900,3111,"<div style=""font-size:20px;""><p>Could someone grow vegetables in sand?</p></div>",1,6,9,Growing vegetables in,grow vegetables in,Can you grow vegetables in,[NP] grew vegetables in,soil,sand,bleach,a potion,become,justice,material,critical,html-keyboard-response,0.4798268496288027,yes,improbable,Could someone grow vegetables in sand?,session-65a05aff81c21,True,0.6007593315012547
anon_subject_148,659f04805339f753c1b65235,65a05a73420a02f3939b3822,26,0.0-3.0-0.8,69155,2255,"<div style=""font-size:20px;""><p>Could someone hide a gift using concepts?</p></div>",0,17,29,Hiding a gift using,hide a gift using,Can you hide a gift using,[NP] hid a gift using,a closet,a tarp,a cloud,invisibility,during,concepts,tool,critical,html-keyboard-response,0.4798268496288027,no,inconceivable_semantic,Could someone hide a gift using concepts?,session-65a05aff81c21,True,-0.5847554968506063
anon_subject_148,659f04805339f753c1b65235,65a05a73420a02f3939b3822,28,0.0-3.0-0.9,72619,2462,"<div style=""font-size:20px;""><p>Could someone construct a castle using wizardry?</p></div>",0,10,20,Constructing a castle using,construct a castle using,Can you construct a castle using,[NP] constructed a castle using,bricks,gems,a star,wizardry,follow,boredom,tool,critical,html-keyboard-response,0.4798268496288027,no,impossible_magic,Could someone construct a castle using wizardry?,session-65a05aff81c21,True,-0.29807142036832224
anon_subject_148,659f04805339f753c1b65235,65a05a73420a02f3939b3822,30,0.0-3.0-0.10,76156,2534,"<div style=""font-size:20px;""><p>Could someone start a fire using kindling?</p></div>",1,12,23,Starting a fire using,start a fire using,Can you start a fire using,[NP] started a fire using,kindling,furniture,milk,enchantments,sometimes,traffic,tool,critical,html-keyboard-response,0.4798268496288027,yes,probable,Could someone start a fire using kindling?,session-65a05aff81c21,True,-0.19835521985274512
anon_subject_148,659f04805339f753c1b65235,65a05a73420a02f3939b3822,32,0.0-3.0-0.11,79707,2550,"<div style=""font-size:20px;""><p>Could someone draw a picture using a smell?</p></div>",0,18,30,Drawing a picture using,draw a picture using,Can you draw a picture using,[NP] drew a picture using,a pencil,lipstick,a mountain,magic,always,a smell,tool,critical,html-keyboard-response,0.4798268496288027,no,inconceivable_semantic,Could someone draw a picture using a smell?,session-65a05aff81c21,True,-0.17619606418261688
anon_subject_148,659f04805339f753c1b65235,65a05a73420a02f3939b3822,34,0.0-3.0-0.12,82692,1986,"<div style=""font-size:20px;""><p>Could someone craft a bowl out of forget?</p></div>",0,5,8,Crafting a bowl out of,craft a bowl out of,Can you craft a bowl out of,[NP] crafted a bowl out of,clay,mud,smoke,auras,forget,friction,material,critical,html-keyboard-response,0.4798268496288027,no,inconceivable_syntactic,Could someone craft a bowl out of forget?,session-65a05aff81c21,True,-0.9573063015546375
anon_subject_148,659f04805339f753c1b65235,65a05a73420a02f3939b3822,36,0.0-3.0-0.13,85763,2070,"<div style=""font-size:20px;""><p>Could someone brew coffee using soda?</p></div>",0,7,13,Brewing coffee using,brew coffee using,Can you brew coffee using,[NP] brewed coffee using,water,soda,glue,lightsabers,into,numbers,tool,critical,html-keyboard-response,0.4798268496288027,no,improbable,Could someone brew coffee using soda?,session-65a05aff81c21,False,-0.8409707342864642
anon_subject_148,659f04805339f753c1b65235,65a05a73420a02f3939b3822,38,0.0-3.0-0.14,89796,3030,"<div style=""font-size:20px;""><p>Could someone knit a scarf using yarn?</p></div>",1,15,27,Knitting a scarf using,knit a scarf using,Can you knit a scarf using,[NP] knitted a scarf using,yarn,wire,lava,telepathy,for,sadness,material,critical,html-keyboard-response,0.4798268496288027,yes,probable,Could someone knit a scarf using yarn?,session-65a05aff81c21,True,0.4885786059212305
anon_subject_148,659f04805339f753c1b65235,65a05a73420a02f3939b3822,40,0.0-3.0-0.15,94812,4016,"<div style=""font-size:20px;""><p>Could someone paint a house using incantations?</p></div>",0,8,14,Painting a house using,paint a house using,Can you paint a house using,[NP] painted a house using,a brush,a mop,a planet,incantations,before,questions,tool,critical,html-keyboard-response,0.4798268496288027,no,impossible_magic,Could someone paint a house using incantations?,session-65a05aff81c21,True,1.8541365740928835
anon_subject_148,659f04805339f753c1b65235,65a05a73420a02f3939b3822,42,0.0-3.0-0.16,98083,2271,"<div style=""font-size:20px;""><p>Could someone chill a drink using tomorrow?</p></div>",0,2,4,Chilling a drink using,chill a drink using,Can you chill a drink using,[NP] chilled a drink using,ice,snow,fire,pixies,at,tomorrow,tool,critical,html-keyboard-response,0.4798268496288027,no,inconceivable_semantic,Could someone chill a drink using tomorrow?,session-65a05aff81c21,True,-0.5625963411804782
anon_subject_148,659f04805339f753c1b65235,65a05a73420a02f3939b3822,44,0.0-3.0-0.17,102004,2919,"<div style=""font-size:20px;""><p>Could someone shovel a driveway full of ice?</p></div>",1,13,25,Shoveling a driveway full of,shovel a driveway full of,Can you shovel a driveway full of,[NP] shoveled a driveway full of,snow,ice,sunshine,ogres,except,rumors,material,critical,html-keyboard-response,0.4798268496288027,yes,improbable,Could someone shovel a driveway full of ice?,session-65a05aff81c21,True,0.3348494634597158
anon_subject_182,659f04805339f753c1b65235,65a05af2d15130d9d4b37b82,34,0.0-3.0-0.0,142731,3461,"<div style=""font-size:20px;""><p>Could someone construct a tower using a lake?</p></div>",0,14,26,Constructing a tower using,construct a tower using,Can you construct a tower using,[NP] constructed a tower using,concrete,blocks,a lake,[POSS] mind,while,laughter,material,critical,html-keyboard-response,0.9899203577273183,no,impossible_physics,Could someone construct a tower using a lake?,session-65a05bd669c7e,True,1.4144519642214957
anon_subject_182,659f04805339f753c1b65235,65a05af2d15130d9d4b37b82,36,0.0-3.0-0.1,147180,3440,"<div style=""font-size:20px;""><p>Could someone wash their hair with minutes?</p></div>",0,16,28,Washing your hair with,wash your hair with,Can you wash your hair with,[NP] washed [POSS] hair with,shampoo,detergent,air,mermaids,though,minutes,tool,critical,html-keyboard-response,0.9899203577273183,no,inconceivable_semantic,Could someone wash their hair with minutes?,session-65a05bd669c7e,True,1.3889395892405478
anon_subject_182,659f04805339f753c1b65235,65a05af2d15130d9d4b37b82,38,0.0-3.0-0.2,150360,2173,"<div style=""font-size:20px;""><p>Could someone chill a drink using snow?</p></div>",1,2,4,Chilling a drink using,chill a drink using,Can you chill a drink using,[NP] chilled a drink using,ice,snow,fire,pixies,at,tomorrow,tool,critical,html-keyboard-response,0.9899203577273183,yes,improbable,Could someone chill a drink using snow?,session-65a05bd669c7e,True,-0.15030703460997613
anon_subject_182,659f04805339f753c1b65235,65a05af2d15130d9d4b37b82,40,0.0-3.0-0.3,152965,1597,"<div style=""font-size:20px;""><p>Could someone draw a picture using lipstick?</p></div>",1,18,30,Drawing a picture using,draw a picture using,Can you draw a picture using,[NP] drew a picture using,a pencil,lipstick,a mountain,magic,always,a smell,tool,critical,html-keyboard-response,0.9899203577273183,yes,improbable,Could someone draw a picture using lipstick?,session-65a05bd669c7e,True,-0.8500750340874045
anon_subject_182,659f04805339f753c1b65235,65a05af2d15130d9d4b37b82,42,0.0-3.0-0.4,156414,2441,"<div style=""font-size:20px;""><p>Could someone wash dishes using fairies?</p></div>",0,3,5,Washing dishes using,wash dishes using,Can you wash dishes using,[NP] washed dishes using,soap,rain,lightning,fairies,fell,arithmetic,tool,critical,html-keyboard-response,0.9899203577273183,no,impossible_magic,Could someone wash dishes using fairies?,session-65a05bd669c7e,True,0.17527946514688292
