subject_id,study_id,session_id,trial_index,internal_node_id,time_elapsed,rt,stimulus,response,item_id,original_item_id,prefix,infinitive_prefix,expt_prefix,sentence_prefix,probable,improbable,impossible_physics,impossible_magic,inconceivable_syntactic,inconceivable_semantic,prefix_type,task_type,trial_type,rng_seed,response_label,condition,query,session_file_id
anon_subject_285,659f04805339f753c1b65235,65a03ef5ee5c94479846d5af,10,0.0-3.0-0.0,47398,2656,"<div style=""font-size:20px;""><p>Could someone bake a cake using an oven?</p></div>",1,1,1,Baking a cake using,bake a cake using,Can you bake a cake using,[NP] baked a cake using,an oven,an airfryer,a refrigerator,superpowers,grasp,anger,tool,critical,html-keyboard-response,0.06914232995603098,yes,probable,Could someone bake a cake using an oven?,session-65a04185c5cb4
anon_subject_285,659f04805339f753c1b65235,65a03ef5ee5c94479846d5af,12,0.0-3.0-0.1,49710,1310,"<div style=""font-size:20px;""><p>Could someone construct a tower using [POSS] mind?</p></div>",0,14,26,Constructing a tower using,construct a tower using,Can you construct a tower using,[NP] constructed a tower using,concrete,blocks,a lake,[POSS] mind,while,laughter,material,critical,html-keyboard-response,0.06914232995603098,no,impossible_magic,Could someone construct a tower using [POSS] mind?,session-65a04185c5cb4
anon_subject_285,659f04805339f753c1b65235,65a03ef5ee5c94479846d5af,14,0.0-3.0-0.2,52429,1704,"<div style=""font-size:20px;""><p>Could someone paint a house using a planet?</p></div>",0,8,14,Painting a house using,paint a house using,Can you paint a house using,[NP] painted a house using,a brush,a mop,a planet,incantations,before,questions,tool,critical,html-keyboard-response,0.06914232995603098,no,impossible_physics,Could someone paint a house using a planet?,session-65a04185c5cb4
anon_subject_285,659f04805339f753c1b65235,65a03ef5ee5c94479846d5af,16,0.0-3.0-0.3,55541,2099,"<div style=""font-size:20px;""><p>Could someone chill a drink using ice?</p></div>",1,2,4,Chilling a drink using,chill a drink using,Can you chill a drink using,[NP] chilled a drink using,ice,snow,fire,pixies,at,tomorrow,tool,critical,html-keyboard-response,0.06914232995603098,yes,probable,Could someone chill a drink using ice?,session-65a04185c5cb4
anon_subject_285,659f04805339f753c1b65235,65a03ef5ee5c94479846d5af,18,0.0-3.0-0.4,58141,1593,"<div style=""font-size:20px;""><p>Could someone craft a bowl out of friction?</p></div>",0,5,8,Crafting a bowl out of,craft a bowl out of,Can you craft a bowl out of,[NP] crafted a bowl out of,clay,mud,smoke,auras,forget,friction,material,critical,html-keyboard-response,0.06914232995603098,no,inconceivable_semantic,Could someone craft a bowl out of friction?,session-65a04185c5cb4
anon_subject_285,659f04805339f753c1b65235,65a03ef5ee5c94479846d5af,20,0.0-3.0-0.5,61253,2109,"<div style=""font-size:20px;""><p>Could someone start a fire using traffic?</p></div>",0,12,23,Starting a fire using,start a fire using,Can you start a fire using,[NP] started a fire using,kindling,furniture,milk,enchantments,sometimes,traffic,tool,critical,html-keyboard-response,0.06914232995603098,no,inconceivable_semantic,Could someone start a fire using traffic?,session-65a04185c5cb4
anon_subject_285,659f04805339f753c1b65235,65a03ef5ee5c94479846d5af,22,0.0-3.0-0.6,64541,2282,"<div style=""font-size:20px;""><p>Could someone shovel a driveway full of except?</p></div>",0,13,25,Shoveling a driveway full of,shovel a driveway full of,Can you shovel a driveway full of,[NP] shoveled a driveway full of,snow,ice,sunshine,ogres,except,rumors,material,critical,html-keyboard-response,0.06914232995603098,no,inconceivable_syntactic,Could someone shovel a driveway full of except?,session-65a04185c5cb4
anon_subject_285,659f04805339f753c1b65235,65a03ef5ee5c94479846d5af,24,0.0-3.0-0.7,67662,2107,"<div style=""font-size:20px;""><p>Could someone draw a picture using a mountain?</p></div>",0,18,30,Drawing a picture using,draw a picture using,Can you draw a picture using,[NP] drew a picture using,a pencil,lipstick,a mountain,magic,always,a smell,tool,critical,html-keyboard-response,0.06914232995603098,no,impossible_physics,Could someone draw a picture using a mountain?,session-65a04185c5cb4
anon_subject_285,659f04805339f753c1b65235,65a03ef5ee5c94479846d5af,26,0.0-3.0-0.8,70430,1754,"<div style=""font-size:20px;""><p>Could someone grow vegetables in sand?</p></div>",1,6,9,Growing vegetables in,grow vegetables in,Can you grow vegetables in,[NP] grew vegetables in,soil,sand,bleach,a potion,become,justice,material,critical,html-keyboard-response,0.06914232995603098,yes,improbable,Could someone grow vegetables in sand?,session-65a04185c5cb4
anon_subject_285,659f04805339f753c1b65235,65a03ef5ee5c94479846d5af,28,0.0-3.0-0.9,75581,4148,"<div style=""font-size:20px;""><p>Could someone wash their hair with air?</p></div>",0,16,28,Washing your hair with,wash your hair with,Can you wash your hair with,[NP] washed [POSS] hair with,shampoo,detergent,air,mermaids,though,minutes,tool,critical,html-keyboard-response,0.06914232995603098,no,impossible_physics,Could someone wash their hair with air?,session-65a04185c5cb4
anon_subject_285,659f04805339f753c1b65235,65a03ef5ee5c94479846d5af,30,0.0-3.0-0.10,78374,1757,"<div style=""font-size:20px;""><p>Could someone construct a castle using follow?</p></div>",0,10,20,Constructing a castle using,construct a castle using,Can you construct a castle using,[NP] constructed a castle using,bricks,gems,a star,wizardry,follow,boredom,tool,critical,html-keyboard-response,0.06914232995603098,no,inconceivable_syntactic,Could someone construct a castle using follow?,session-65a04185c5cb4
anon_subject_285,659f04805339f753c1b65235,65a03ef5ee5c94479846d5af,32,0.0-3.0-0.11,81469,2089,"<div style=""font-size:20px;""><p>Could someone brew coffee using into?</p></div>",0,7,13,Brewing coffee using,brew coffee using,Can you brew coffee using,[NP] brewed coffee using,water,soda,glue,lightsabers,into,numbers,tool,critical,html-keyboard-response,0.06914232995603098,no,inconceivable_syntactic,Could someone brew coffee using into?,session-65a04185c5cb4
anon_subject_285,659f04805339f753c1b65235,65a03ef5ee5c94479846d5af,34,0.0-3.0-0.12,84686,2090,"<div style=""font-size:20px;""><p>Could someone seal a box using magnets?</p></div>",0,9,17,Sealing a box using,seal a box using,Can you seal a box using,[NP] sealed a box using,tape,magnets,wine,sorcery,do,jokes,tool,critical,html-keyboard-response,0.06914232995603098,no,improbable,Could someone seal a box using magnets?,session-65a04185c5cb4
anon_subject_285,659f04805339f753c1b65235,65a03ef5ee5c94479846d5af,36,0.0-3.0-0.13,87366,1674,"<div style=""font-size:20px;""><p>Could someone tow a car using a truck?</p></div>",1,11,22,Towing a car using,tow a car using,Can you tow a car using,[NP] towed a car using,a truck,a horse,a butterfly,aliens,then,freedom,tool,critical,html-keyboard-response,0.06914232995603098,yes,probable,Could someone tow a car using a truck?,session-65a04185c5cb4
anon_subject_285,659f04805339f753c1b65235,65a03ef5ee5c94479846d5af,38,0.0-3.0-0.14,89774,1396,"<div style=""font-size:20px;""><p>Could someone wash dishes using arithmetic?</p></div>",0,3,5,Washing dishes using,wash dishes using,Can you wash dishes using,[NP] washed dishes using,soap,rain,lightning,fairies,fell,arithmetic,tool,critical,html-keyboard-response,0.06914232995603098,no,inconceivable_semantic,Could someone wash dishes using arithmetic?,session-65a04185c5cb4
anon_subject_285,659f04805339f753c1b65235,65a03ef5ee5c94479846d5af,40,0.0-3.0-0.15,92534,1750,"<div style=""font-size:20px;""><p>Could someone hide a gift using invisibility?</p></div>",0,17,29,Hiding a gift using,hide a gift using,Can you hide a gift using,[NP] hid a gift using,a closet,a tarp,a cloud,invisibility,during,concepts,tool,critical,html-keyboard-response,0.06914232995603098,no,impossible_magic,Could someone hide a gift using invisibility?,session-65a04185c5cb4
anon_subject_285,659f04805339f753c1b65235,65a03ef5ee5c94479846d5af,42,0.0-3.0-0.16,95046,1508,"<div style=""font-size:20px;""><p>Could someone fly a kite using witchcraft?</p></div>",0,4,7,Flying a kite using,fly a kite using,Can you fly a kite using,[NP] flew a kite using,string,dental floss,lead,witchcraft,give,a sound,tool,critical,html-keyboard-response,0.06914232995603098,no,impossible_magic,Could someone fly a kite using witchcraft?,session-65a04185c5cb4
anon_subject_285,659f04805339f753c1b65235,65a03ef5ee5c94479846d5af,44,0.0-3.0-0.17,98741,2680,"<div style=""font-size:20px;""><p>Could someone knit a scarf using wire?</p></div>",1,15,27,Knitting a scarf using,knit a scarf using,Can you knit a scarf using,[NP] knitted a scarf using,yarn,wire,lava,telepathy,for,sadness,material,critical,html-keyboard-response,0.06914232995603098,yes,improbable,Could someone knit a scarf using wire?,session-65a04185c5cb4
anon_subject_30,659f04805339f753c1b65235,65a0471539341d75b93cf885,18,0.0-3.0-0.0,69903,3669,"<div style=""font-size:20px;""><p>Could someone start a fire using furniture?</p></div>",1,12,23,Starting a fire using,start a fire using,Can you start a fire using,[NP] started a fire using,kindling,furniture,milk,enchantments,sometimes,traffic,tool,critical,html-keyboard-response,0.7930852442032413,yes,improbable,Could someone start a fire using furniture?,session-65a04795a47b9
anon_subject_30,659f04805339f753c1b65235,65a0471539341d75b93cf885,20,0.0-3.0-0.1,72572,1664,"<div style=""font-size:20px;""><p>Could someone bake a cake using superpowers?</p></div>",0,1,1,Baking a cake using,bake a cake using,Can you bake a cake using,[NP] baked a cake using,an oven,an airfryer,a refrigerator,superpowers,grasp,anger,tool,critical,html-keyboard-response,0.7930852442032413,no,impossible_magic,Could someone bake a cake using superpowers?,session-65a04795a47b9
anon_subject_30,659f04805339f753c1b65235,65a0471539341d75b93cf885,22,0.0-3.0-0.2,74822,1244,"<div style=""font-size:20px;""><p>Could someone wash dishes using soap?</p></div>",1,3,5,Washing dishes using,wash dishes using,Can you wash dishes using,[NP] washed dishes using,soap,rain,lightning,fairies,fell,arithmetic,tool,critical,html-keyboard-response,0.7930852442032413,yes,probable,Could someone wash dishes using soap?,session-65a04795a47b9
anon_subject_30,659f04805339f753c1b65235,65a0471539341d75b93cf885,24,0.0-3.0-0.3,77254,1429,"<div style=""font-size:20px;""><p>Could someone hide a gift using during?</p></div>",0,17,29,Hiding a gift using,hide a gift using,Can you hide a gift using,[NP] hid a gift using,a closet,a tarp,a cloud,invisibility,during,concepts,tool,critical,html-keyboard-response,0.7930852442032413,no,inconceivable_syntactic,Could someone hide a gift using during?,session-65a04795a47b9
anon_subject_30,659f04805339f753c1b65235,65a0471539341d75b93cf885,26,0.0-3.0-0.4,79589,1330,"<div style=""font-size:20px;""><p>Could someone seal a box using jokes?</p></div>",0,9,17,Sealing a box using,seal a box using,Can you seal a box using,[NP] sealed a box using,tape,magnets,wine,sorcery,do,jokes,tool,critical,html-keyboard-response,0.7930852442032413,no,inconceivable_semantic,Could someone seal a box using jokes?,session-65a04795a47b9
anon_subject_30,659f04805339f753c1b65235,65a0471539341d75b93cf885,28,0.0-3.0-0.5,81751,1157,"<div style=""font-size:20px;""><p>Could someone paint a house using a brush?</p></div>",1,8,14,Painting a house using,paint a house using,Can you paint a house using,[NP] painted a house using,a brush,a mop,a planet,incantations,before,questions,tool,critical,html-keyboard-response,0.7930852442032413,yes,probable,Could someone paint a house using a brush?,session-65a04795a47b9
anon_subject_30,659f04805339f753c1b65235,65a0471539341d75b93cf885,30,0.0-3.0-0.6,84067,1311,"<div style=""font-size:20px;""><p>Could someone construct a tower using concrete?</p></div>",1,14,26,Constructing a tower using,construct a tower using,Can you construct a tower using,[NP] constructed a tower using,concrete,blocks,a lake,[POSS] mind,while,laughter,material,critical,html-keyboard-response,0.7930852442032413,yes,probable,Could someone construct a tower using concrete?,session-65a04795a47b9
anon_subject_30,659f04805339f753c1b65235,65a0471539341d75b93cf885,32,0.0-3.0-0.7,86221,1150,"<div style=""font-size:20px;""><p>Could someone construct a castle using wizardry?</p></div>",0,10,20,Constructing a castle using,construct a castle using,Can you construct a castle using,[NP] constructed a castle using,bricks,gems,a star,wizardry,follow,boredom,tool,critical,html-keyboard-response,0.7930852442032413,no,impossible_magic,Could someone construct a castle using wizardry?,session-65a04795a47b9
anon_subject_30,659f04805339f753c1b65235,65a0471539341d75b93cf885,34,0.0-3.0-0.8,88845,1618,"<div style=""font-size:20px;""><p>Could someone knit a scarf using for?</p></div>",0,15,27,Knitting a scarf using,knit a scarf using,Can you knit a scarf using,[NP] knitted a scarf using,yarn,wire,lava,telepathy,for,sadness,material,critical,html-keyboard-response,0.7930852442032413,no,inconceivable_syntactic,Could someone knit a scarf using for?,session-65a04795a47b9
anon_subject_30,659f04805339f753c1b65235,65a0471539341d75b93cf885,36,0.0-3.0-0.9,91185,1334,"<div style=""font-size:20px;""><p>Could someone wash their hair with air?</p></div>",0,16,28,Washing your hair with,wash your hair with,Can you wash your hair with,[NP] washed [POSS] hair with,shampoo,detergent,air,mermaids,though,minutes,tool,critical,html-keyboard-response,0.7930852442032413,no,impossible_physics,Could someone wash their hair with air?,session-65a04795a47b9
anon_subject_30,659f04805339f753c1b65235,65a0471539341d75b93cf885,38,0.0-3.0-0.10,93252,1062,"<div style=""font-size:20px;""><p>Could someone draw a picture using a smell?</p></div>",0,18,30,Drawing a picture using,draw a picture using,Can you draw a picture using,[NP] drew a picture using,a pencil,lipstick,a mountain,magic,always,a smell,tool,critical,html-keyboard-response,0.7930852442032413,no,inconceivable_semantic,Could someone draw a picture using a smell?,session-65a04795a47b9
anon_subject_30,659f04805339f753c1b65235,65a0471539341d75b93cf885,40,0.0-3.0-0.11,95291,1035,"<div style=""font-size:20px;""><p>Could someone brew coffee using glue?</p></div>",0,7,13,Brewing coffee using,brew coffee using,Can you brew coffee using,[NP] brewed coffee using,water,soda,glue,lightsabers,into,numbers,tool,critical,html-keyboard-response,0.7930852442032413,no,impossible_physics,Could someone brew coffee using glue?,session-65a04795a47b9
anon_subject_30,659f04805339f753c1b65235,65a0471539341d75b93cf885,42,0.0-3.0-0.12,97488,1191,"<div style=""font-size:20px;""><p>Could someone grow vegetables in a potion?</p></div>",0,6,9,Growing vegetables in,grow vegetables in,Can you grow vegetables in,[NP] grew vegetables in,soil,sand,bleach,a potion,become,justice,material,critical,html-keyboard-response,0.7930852442032413,no,impossible_magic,Could someone grow vegetables in a potion?,session-65a04795a47b9
anon_subject_30,659f04805339f753c1b65235,65a0471539341d75b93cf885,44,0.0-3.0-0.13,99670,1178,"<div style=""font-size:20px;""><p>Could someone craft a bowl out of smoke?</p></div>",0,5,8,Crafting a bowl out of,craft a bowl out of,Can you craft a bowl out of,[NP] crafted a bowl out of,clay,mud,smoke,auras,forget,friction,material,critical,html-keyboard-response,0.7930852442032413,no,impossible_physics,Could someone craft a bowl out of smoke?,session-65a04795a47b9
anon_subject_30,659f04805339f753c1b65235,65a0471539341d75b93cf885,46,0.0-3.0-0.14,101920,1246,"<div style=""font-size:20px;""><p>Could someone shovel a driveway full of ice?</p></div>",1,13,25,Shoveling a driveway full of,shovel a driveway full of,Can you shovel a driveway full of,[NP] shoveled a driveway full of,snow,ice,sunshine,ogres,except,rumors,material,critical,html-keyboard-response,0.7930852442032413,yes,improbable,Could someone shovel a driveway full of ice?,session-65a04795a47b9
anon_subject_30,659f04805339f753c1b65235,65a0471539341d75b93cf885,48,0.0-3.0-0.15,104193,1267,"<div style=""font-size:20px;""><p>Could someone tow a car using then?</p></div>",0,11,22,Towing a car using,tow a car using,Can you tow a car using,[NP] towed a car using,a truck,a horse,a butterfly,aliens,then,freedom,tool,critical,html-keyboard-response,0.7930852442032413,no,inconceivable_syntactic,Could someone tow a car using then?,session-65a04795a47b9
anon_subject_30,659f04805339f753c1b65235,65a0471539341d75b93cf885,50,0.0-3.0-0.16,106361,1164,"<div style=""font-size:20px;""><p>Could someone fly a kite using a sound?</p></div>",0,4,7,Flying a kite using,fly a kite using,Can you fly a kite using,[NP] flew a kite using,string,dental floss,lead,witchcraft,give,a sound,tool,critical,html-keyboard-response,0.7930852442032413,no,inconceivable_semantic,Could someone fly a kite using a sound?,session-65a04795a47b9
anon_subject_30,659f04805339f753c1b65235,65a0471539341d75b93cf885,52,0.0-3.0-0.17,109415,2051,"<div style=""font-size:20px;""><p>Could someone chill a drink using snow?</p></div>",1,2,4,Chilling a drink using,chill a drink using,Can you chill a drink using,[NP] chilled a drink using,ice,snow,fire,pixies,at,tomorrow,tool,critical,html-keyboard-response,0.7930852442032413,yes,improbable,Could someone chill a drink using snow?,session-65a04795a47b9
anon_subject_146,659f04805339f753c1b65235,65a047892086d07cc8439b7d,18,0.0-3.0-0.0,50261,2330,"<div style=""font-size:20px;""><p>Could someone craft a bowl out of smoke?</p></div>",0,5,8,Crafting a bowl out of,craft a bowl out of,Can you craft a bowl out of,[NP] crafted a bowl out of,clay,mud,smoke,auras,forget,friction,material,critical,html-keyboard-response,0.6874473965112899,no,impossible_physics,Could someone craft a bowl out of smoke?,session-65a0480f36680
anon_subject_146,659f04805339f753c1b65235,65a047892086d07cc8439b7d,20,0.0-3.0-0.1,53136,1872,"<div style=""font-size:20px;""><p>Could someone construct a castle using follow?</p></div>",0,10,20,Constructing a castle using,construct a castle using,Can you construct a castle using,[NP] constructed a castle using,bricks,gems,a star,wizardry,follow,boredom,tool,critical,html-keyboard-response,0.6874473965112899,no,inconceivable_syntactic,Could someone construct a castle using follow?,session-65a0480f36680
anon_subject_146,659f04805339f753c1b65235,65a047892086d07cc8439b7d,22,0.0-3.0-0.2,55853,1702,"<div style=""font-size:20px;""><p>Could someone chill a drink using at?</p></div>",0,2,4,Chilling a drink using,chill a drink using,Can you chill a drink using,[NP] chilled a drink using,ice,snow,fire,pixies,at,tomorrow,tool,critical,html-keyboard-response,0.6874473965112899,no,inconceivable_syntactic,Could someone chill a drink using at?,session-65a0480f36680
anon_subject_146,659f04805339f753c1b65235,65a047892086d07cc8439b7d,24,0.0-3.0-0.3,57979,1118,"<div style=""font-size:20px;""><p>Could someone brew coffee using water?</p></div>",1,7,13,Brewing coffee using,brew coffee using,Can you brew coffee using,[NP] brewed coffee using,water,soda,glue,lightsabers,into,numbers,tool,critical,html-keyboard-response,0.6874473965112899,yes,probable,Could someone brew coffee using water?,session-65a0480f36680
anon_subject_146,659f04805339f753c1b65235,65a047892086d07cc8439b7d,26,0.0-3.0-0.4,61522,2532,"<div style=""font-size:20px;""><p>Could someone shovel a driveway full of rumors?</p></div>",0,13,25,Shoveling a driveway full of,shovel a driveway full of,Can you shovel a driveway full of,[NP] shoveled a driveway full of,snow,ice,sunshine,ogres,except,rumors,material,critical,html-keyboard-response,0.6874473965112899,no,inconceivable_semantic,Could someone shovel a driveway full of rumors?,session-65a0480f36680
anon_subject_146,659f04805339f753c1b65235,65a047892086d07cc8439b7d,28,0.0-3.0-0.5,64567,2040,"<div style=""font-size:20px;""><p>Could someone wash their hair with detergent?</p></div>",1,16,28,Washing your hair with,wash your hair with,Can you wash your hair with,[NP] washed [POSS] hair with,shampoo,detergent,air,mermaids,though,minutes,tool,critical,html-keyboard-response,0.6874473965112899,yes,improbable,Could someone wash their hair with detergent?,session-65a0480f36680
anon_subject_146,659f04805339f753c1b65235,65a047892086d07cc8439b7d,30,0.0-3.0-0.6,66750,1175,"<div style=""font-size:20px;""><p>Could someone knit a scarf using sadness?</p></div>",0,15,27,Knitting a scarf using,knit a scarf using,Can you knit a scarf using,[NP] knitted a scarf using,yarn,wire,lava,telepathy,for,sadness,material,critical,html-keyboard-response,0.6874473965112899,no,inconceivable_semantic,Could someone knit a scarf using sadness?,session-65a0480f36680
anon_subject_146,659f04805339f753c1b65235,65a047892086d07cc8439b7d,32,0.0-3.0-0.7,69400,1640,"<div style=""font-size:20px;""><p>Could someone paint a house using before?</p></div>",0,8,14,Painting a house using,paint a house using,Can you paint a house using,[NP] painted a house using,a brush,a mop,a planet,incantations,before,questions,tool,critical,html-keyboard-response,0.6874473965112899,no,inconceivable_syntactic,Could someone paint a house using before?,session-65a0480f36680
anon_subject_146,659f04805339f753c1b65235,65a047892086d07cc8439b7d,34,0.0-3.0-0.8,72345,1933,"<div style=""font-size:20px;""><p>Could someone start a fire using traffic?</p></div>",1,12,23,Starting a fire using,start a fire using,Can you start a fire using,[NP] started a fire using,kindling,furniture,milk,enchantments,sometimes,traffic,tool,critical,html-keyboard-response,0.6874473965112899,yes,inconceivable_semantic,Could someone start a fire using traffic?,session-65a0480f36680
anon_subject_146,659f04805339f753c1b65235,65a047892086d07cc8439b7d,36,0.0-3.0-0.9,75638,2284,"<div style=""font-size:20px;""><p>Could someone bake a cake using superpowers?</p></div>",0,1,1,Baking a cake using,bake a cake using,Can you bake a cake using,[NP] baked a cake using,an oven,an airfryer,a refrigerator,superpowers,grasp,anger,tool,critical,html-keyboard-response,0.6874473965112899,no,impossible_magic,Could someone bake a cake using superpowers?,session-65a0480f36680
anon_subject_146,659f04805339f753c1b65235,65a047892086d07cc8439b7d,38,0.0-3.0-0.10,78408,1761,"<div style=""font-size:20px;""><p>Could someone fly a kite using string?</p></div>",1,4,7,Flying a kite using,fly a kite using,Can you fly a kite using,[NP] flew a kite using,string,dental floss,lead,witchcraft,give,a sound,tool,critical,html-keyboard-response,0.6874473965112899,yes,probable,Could someone fly a kite using string?,session-65a0480f36680
anon_subject_146,659f04805339f753c1b65235,65a047892086d07cc8439b7d,40,0.0-3.0-0.11,80910,1498,"<div style=""font-size:20px;""><p>Could someone tow a car using a horse?</p></div>",0,11,22,Towing a car using,tow a car using,Can you tow a car using,[NP] towed a car using,a truck,a horse,a butterfly,aliens,then,freedom,tool,critical,html-keyboard-response,0.6874473965112899,no,improbable,Could someone tow a car using a horse?,session-65a0480f36680
anon_subject_146,659f04805339f753c1b65235,65a047892086d07cc8439b7d,42,0.0-3.0-0.12,83972,2050,"<div style=""font-size:20px;""><p>Could someone hide a gift using a cloud?</p></div>",0,17,29,Hiding a gift using,hide a gift using,Can you hide a gift using,[NP] hid a gift using,a closet,a tarp,a cloud,invisibility,during,concepts,tool,critical,html-keyboard-response,0.6874473965112899,no,impossible_physics,Could someone hide a gift using a cloud?,session-65a0480f36680
anon_subject_146,659f04805339f753c1b65235,65a047892086d07cc8439b7d,44,0.0-3.0-0.13,86254,1269,"<div style=""font-size:20px;""><p>Could someone wash dishes using soap?</p></div>",1,3,5,Washing dishes using,wash dishes using,Can you wash dishes using,[NP] washed dishes using,soap,rain,lightning,fairies,fell,arithmetic,tool,critical,html-keyboard-response,0.6874473965112899,yes,probable,Could someone wash dishes using soap?,session-65a0480f36680
anon_subject_146,659f04805339f753c1b65235,65a047892086d07cc8439b7d,46,0.0-3.0-0.14,88804,1536,"<div style=""font-size:20px;""><p>Could someone seal a box using sorcery?</p></div>",0,9,17,Sealing a box using,seal a box using,Can you seal a box using,[NP] sealed a box using,tape,magnets,wine,sorcery,do,jokes,tool,critical,html-keyboard-response,0.6874473965112899,no,impossible_magic,Could someone seal a box using sorcery?,session-65a0480f36680
anon_subject_146,659f04805339f753c1b65235,65a047892086d07cc8439b7d,48,0.0-3.0-0.15,91347,1530,"<div style=""font-size:20px;""><p>Could someone draw a picture using a mountain?</p></div>",1,18,30,Drawing a picture using,draw a picture using,Can you draw a picture using,[NP] drew a picture using,a pencil,lipstick,a mountain,magic,always,a smell,tool,critical,html-keyboard-response,0.6874473965112899,yes,impossible_physics,Could someone draw a picture using a mountain?,session-65a0480f36680
anon_subject_146,659f04805339f753c1b65235,65a047892086d07cc8439b7d,50,0.0-3.0-0.16,94222,1858,"<div style=""font-size:20px;""><p>Could someone grow vegetables in sand?</p></div>",0,6,9,Growing vegetables in,grow vegetables in,Can you grow vegetables in,[NP] grew vegetables in,soil,sand,bleach,a potion,become,justice,material,critical,html-keyboard-response,0.6874473965112899,no,improbable,Could someone grow vegetables in sand?,session-65a0480f36680
anon_subject_146,659f04805339f753c1b65235,65a047892086d07cc8439b7d,52,0.0-3.0-0.17,97782,2557,"<div style=""font-size:20px;""><p>Could someone construct a tower using [POSS] mind?</p></div>",0,14,26,Constructing a tower using,construct a tower using,Can you construct a tower using,[NP] constructed a tower using,concrete,blocks,a lake,[POSS] mind,while,laughter,material,critical,html-keyboard-response,0.6874473965112899,no,impossible_magic,Could someone construct a tower using [POSS] mind?,session-65a0480f36680
anon_subject_42,659f04805339f753c1b65235,65a0479e591c52695cdbe8c1,18,0.0-3.0-0.0,50026,2460,"<div style=""font-size:20px;""><p>Could someone paint a house using a mop?</p></div>",1,8,14,Painting a house using,paint a house using,Can you paint a house using,[NP] painted a house using,a brush,a mop,a planet,incantations,before,questions,tool,critical,html-keyboard-response,0.4290670587524601,yes,improbable,Could someone paint a house using a mop?,session-65a0480f911e6
anon_subject_42,659f04805339f753c1b65235,65a0479e591c52695cdbe8c1,20,0.0-3.0-0.1,52554,1525,"<div style=""font-size:20px;""><p>Could someone brew coffee using numbers?</p></div>",0,7,13,Brewing coffee using,brew coffee using,Can you brew coffee using,[NP] brewed coffee using,water,soda,glue,lightsabers,into,numbers,tool,critical,html-keyboard-response,0.4290670587524601,no,inconceivable_semantic,Could someone brew coffee using numbers?,session-65a0480f911e6
anon_subject_42,659f04805339f753c1b65235,65a0479e591c52695cdbe8c1,22,0.0-3.0-0.2,55218,1659,"<div style=""font-size:20px;""><p>Could someone grow vegetables in bleach?</p></div>",0,6,9,Growing vegetables in,grow vegetables in,Can you grow vegetables in,[NP] grew vegetables in,soil,sand,bleach,a potion,become,justice,material,critical,html-keyboard-response,0.4290670587524601,no,impossible_physics,Could someone grow vegetables in bleach?,session-65a0480f911e6
anon_subject_42,659f04805339f753c1b65235,65a0479e591c52695cdbe8c1,24,0.0-3.0-0.3,58113,1889,"<div style=""font-size:20px;""><p>Could someone draw a picture using magic?</p></div>",0,18,30,Drawing a picture using,draw a picture using,Can you draw a picture using,[NP] drew a picture using,a pencil,lipstick,a mountain,magic,always,a smell,tool,critical,html-keyboard-response,0.4290670587524601,no,impossible_magic,Could someone draw a picture using magic?,session-65a0480f911e6
anon_subject_42,659f04805339f753c1b65235,65a0479e591c52695cdbe8c1,26,0.0-3.0-0.4,60734,1617,"<div style=""font-size:20px;""><p>Could someone shovel a driveway full of ogres?</p></div>",0,13,25,Shoveling a driveway full of,shovel a driveway full of,Can you shovel a driveway full of,[NP] shoveled a driveway full of,snow,ice,sunshine,ogres,except,rumors,material,critical,html-keyboard-response,0.4290670587524601,no,impossible_magic,Could someone shovel a driveway full of ogres?,session-65a0480f911e6
anon_subject_42,659f04805339f753c1b65235,65a0479e591c52695cdbe8c1,28,0.0-3.0-0.5,63049,1308,"<div style=""font-size:20px;""><p>Could someone fly a kite using string?</p></div>",1,4,7,Flying a kite using,fly a kite using,Can you fly a kite using,[NP] flew a kite using,string,dental floss,lead,witchcraft,give,a sound,tool,critical,html-keyboard-response,0.4290670587524601,yes,probable,Could someone fly a kite using string?,session-65a0480f911e6
anon_subject_42,659f04805339f753c1b65235,65a0479e591c52695cdbe8c1,30,0.0-3.0-0.6,66008,1954,"<div style=""font-size:20px;""><p>Could someone hide a gift using a closet?</p></div>",1,17,29,Hiding a gift using,hide a gift using,Can you hide a gift using,[NP] hid a gift using,a closet,a tarp,a cloud,invisibility,during,concepts,tool,critical,html-keyboard-response,0.4290670587524601,yes,probable,Could someone hide a gift using a closet?,session-65a0480f911e6
anon_subject_42,659f04805339f753c1b65235,65a0479e591c52695cdbe8c1,32,0.0-3.0-0.7,68431,1417,"<div style=""font-size:20px;""><p>Could someone seal a box using do?</p></div>",0,9,17,Sealing a box using,seal a box using,Can you seal a box using,[NP] sealed a box using,tape,magnets,wine,sorcery,do,jokes,tool,critical,html-keyboard-response,0.4290670587524601,no,inconceivable_syntactic,Could someone seal a box using do?,session-65a0480f911e6
anon_subject_42,659f04805339f753c1b65235,65a0479e591c52695cdbe8c1,34,0.0-3.0-0.8,70729,1292,"<div style=""font-size:20px;""><p>Could someone wash their hair with though?</p></div>",0,16,28,Washing your hair with,wash your hair with,Can you wash your hair with,[NP] washed [POSS] hair with,shampoo,detergent,air,mermaids,though,minutes,tool,critical,html-keyboard-response,0.4290670587524601,no,inconceivable_syntactic,Could someone wash their hair with though?,session-65a0480f911e6
anon_subject_42,659f04805339f753c1b65235,65a0479e591c52695cdbe8c1,36,0.0-3.0-0.9,73084,1353,"<div style=""font-size:20px;""><p>Could someone knit a scarf using lava?</p></div>",0,15,27,Knitting a scarf using,knit a scarf using,Can you knit a scarf using,[NP] knitted a scarf using,yarn,wire,lava,telepathy,for,sadness,material,critical,html-keyboard-response,0.4290670587524601,no,impossible_physics,Could someone knit a scarf using lava?,session-65a0480f911e6
anon_subject_42,659f04805339f753c1b65235,65a0479e591c52695cdbe8c1,38,0.0-3.0-0.10,75476,1386,"<div style=""font-size:20px;""><p>Could someone bake a cake using superpowers?</p></div>",0,1,1,Baking a cake using,bake a cake using,Can you bake a cake using,[NP] baked a cake using,an oven,an airfryer,a refrigerator,superpowers,grasp,anger,tool,critical,html-keyboard-response,0.4290670587524601,no,impossible_magic,Could someone bake a cake using superpowers?,session-65a0480f911e6
anon_subject_42,659f04805339f753c1b65235,65a0479e591c52695cdbe8c1,40,0.0-3.0-0.11,77680,1199,"<div style=""font-size:20px;""><p>Could someone craft a bowl out of friction?</p></div>",0,5,8,Crafting a bowl out of,craft a bowl out of,Can you craft a bowl out of,[NP] crafted a bowl out of,clay,mud,smoke,auras,forget,friction,material,critical,html-keyboard-response,0.4290670587524601,no,inconceivable_semantic,Could someone craft a bowl out of friction?,session-65a0480f911e6
anon_subject_42,659f04805339f753c1b65235,65a0479e591c52695cdbe8c1,42,0.0-3.0-0.12,79845,1159,"<div style=""font-size:20px;""><p>Could someone wash dishes using fell?</p></div>",0,3,5,Washing dishes using,wash dishes using,Can you wash dishes using,[NP] washed dishes using,soap,rain,lightning,fairies,fell,arithmetic,tool,critical,html-keyboard-response,0.4290670587524601,no,inconceivable_syntactic,Could someone wash dishes using fell?,session-65a0480f911e6
anon_subject_42,659f04805339f753c1b65235,65a0479e591c52695cdbe8c1,44,0.0-3.0-0.13,82897,2045,"<div style=""font-size:20px;""><p>Could someone chill a drink using ice?</p></div>",1,2,4,Chilling a drink using,chill a drink using,Can you chill a drink using,[NP] chilled a drink using,ice,snow,fire,pixies,at,tomorrow,tool,critical,html-keyboard-response,0.4290670587524601,yes,probable,Could someone chill a drink using ice?,session-65a0480f911e6
anon_subject_42,659f04805339f753c1b65235,65a0479e591c52695cdbe8c1,46,0.0-3.0-0.14,85464,1562,"<div style=""font-size:20px;""><p>Could someone tow a car using a horse?</p></div>",1,11,22,Towing a car using,tow a car using,Can you tow a car using,[NP] towed a car using,a truck,a horse,a butterfly,aliens,then,freedom,tool,critical,html-keyboard-response,0.4290670587524601,yes,improbable,Could someone tow a car using a horse?,session-65a0480f911e6
anon_subject_42,659f04805339f753c1b65235,65a0479e591c52695cdbe8c1,48,0.0-3.0-0.15,87785,1314,"<div style=""font-size:20px;""><p>Could someone construct a castle using boredom?</p></div>",0,10,20,Constructing a castle using,construct a castle using,Can you construct a castle using,[NP] constructed a castle using,bricks,gems,a star,wizardry,follow,boredom,tool,critical,html-keyboard-response,0.4290670587524601,no,inconceivable_semantic,Could someone construct a castle using boredom?,session-65a0480f911e6
anon_subject_42,659f04805339f753c1b65235,65a0479e591c52695cdbe8c1,50,0.0-3.0-0.16,90392,1602,"<div style=""font-size:20px;""><p>Could someone start a fire using furniture?</p></div>",1,12,23,Starting a fire using,start a fire using,Can you start a fire using,[NP] started a fire using,kindling,furniture,milk,enchantments,sometimes,traffic,tool,critical,html-keyboard-response,0.4290670587524601,yes,improbable,Could someone start a fire using furniture?,session-65a0480f911e6
anon_subject_42,659f04805339f753c1b65235,65a0479e591c52695cdbe8c1,52,0.0-3.0-0.17,92846,1449,"<div style=""font-size:20px;""><p>Could someone construct a tower using a lake?</p></div>",0,14,26,Constructing a tower using,construct a tower using,Can you construct a tower using,[NP] constructed a tower using,concrete,blocks,a lake,[POSS] mind,while,laughter,material,critical,html-keyboard-response,0.4290670587524601,no,impossible_physics,Could someone construct a tower using a lake?,session-65a0480f911e6
anon_subject_28,659f04805339f753c1b65235,65a05a6f2bb7751b509056c3,10,0.0-3.0-0.0,39469,1973,"<div style=""font-size:20px;""><p>Could someone grow vegetables in become?</p></div>",0,6,9,Growing vegetables in,grow vegetables in,Can you grow vegetables in,[NP] grew vegetables in,soil,sand,bleach,a potion,become,justice,material,critical,html-keyboard-response,0.23192453619459075,no,inconceivable_syntactic,Could someone grow vegetables in become?,session-65a05b470364e
anon_subject_28,659f04805339f753c1b65235,65a05a6f2bb7751b509056c3,12,0.0-3.0-0.1,41985,1503,"<div style=""font-size:20px;""><p>Could someone draw a picture using magic?</p></div>",0,18,30,Drawing a picture using,draw a picture using,Can you draw a picture using,[NP] drew a picture using,a pencil,lipstick,a mountain,magic,always,a smell,tool,critical,html-keyboard-response,0.23192453619459075,no,impossible_magic,Could someone draw a picture using magic?,session-65a05b470364e
anon_subject_28,659f04805339f753c1b65235,65a05a6f2bb7751b509056c3,14,0.0-3.0-0.2,44342,1347,"<div style=""font-size:20px;""><p>Could someone wash their hair with air?</p></div>",0,16,28,Washing your hair with,wash your hair with,Can you wash your hair with,[NP] washed [POSS] hair with,shampoo,detergent,air,mermaids,though,minutes,tool,critical,html-keyboard-response,0.23192453619459075,no,impossible_physics,Could someone wash their hair with air?,session-65a05b470364e
anon_subject_28,659f04805339f753c1b65235,65a05a6f2bb7751b509056c3,16,0.0-3.0-0.3,46972,1622,"<div style=""font-size:20px;""><p>Could someone tow a car using a horse?</p></div>",1,11,22,Towing a car using,tow a car using,Can you tow a car using,[NP] towed a car using,a truck,a horse,a butterfly,aliens,then,freedom,tool,critical,html-keyboard-response,0.23192453619459075,yes,improbable,Could someone tow a car using a horse?,session-65a05b470364e
anon_subject_28,659f04805339f753c1b65235,65a05a6f2bb7751b509056c3,18,0.0-3.0-0.4,52572,4593,"<div style=""font-size:20px;""><p>Could someone start a fire using traffic?</p></div>",0,12,23,Starting a fire using,start a fire using,Can you start a fire using,[NP] started a fire using,kindling,furniture,milk,enchantments,sometimes,traffic,tool,critical,html-keyboard-response,0.23192453619459075,no,inconceivable_semantic,Could someone start a fire using traffic?,session-65a05b470364e
anon_subject_28,659f04805339f753c1b65235,65a05a6f2bb7751b509056c3,20,0.0-3.0-0.5,54731,1150,"<div style=""font-size:20px;""><p>Could someone wash dishes using fairies?</p></div>",0,3,5,Washing dishes using,wash dishes using,Can you wash dishes using,[NP] washed dishes using,soap,rain,lightning,fairies,fell,arithmetic,tool,critical,html-keyboard-response,0.23192453619459075,no,impossible_magic,Could someone wash dishes using fairies?,session-65a05b470364e
anon_subject_28,659f04805339f753c1b65235,65a05a6f2bb7751b509056c3,22,0.0-3.0-0.6,58524,2784,"<div style=""font-size:20px;""><p>Could someone construct a castle using gems?</p></div>",1,10,20,Constructing a castle using,construct a castle using,Can you construct a castle using,[NP] constructed a castle using,bricks,gems,a star,wizardry,follow,boredom,tool,critical,html-keyboard-response,0.23192453619459075,yes,improbable,Could someone construct a castle using gems?,session-65a05b470364e
anon_subject_28,659f04805339f753c1b65235,65a05a6f2bb7751b509056c3,24,0.0-3.0-0.7,61550,2017,"<div style=""font-size:20px;""><p>Could someone brew coffee using into?</p></div>",0,7,13,Brewing coffee using,brew coffee using,Can you brew coffee using,[NP] brewed coffee using,water,soda,glue,lightsabers,into,numbers,tool,critical,html-keyboard-response,0.23192453619459075,no,inconceivable_syntactic,Could someone brew coffee using into?,session-65a05b470364e
anon_subject_28,659f04805339f753c1b65235,65a05a6f2bb7751b509056c3,26,0.0-3.0-0.8,64491,1934,"<div style=""font-size:20px;""><p>Could someone seal a box using jokes?</p></div>",0,9,17,Sealing a box using,seal a box using,Can you seal a box using,[NP] sealed a box using,tape,magnets,wine,sorcery,do,jokes,tool,critical,html-keyboard-response,0.23192453619459075,no,inconceivable_semantic,Could someone seal a box using jokes?,session-65a05b470364e
anon_subject_28,659f04805339f753c1b65235,65a05a6f2bb7751b509056c3,28,0.0-3.0-0.9,66859,1362,"<div style=""font-size:20px;""><p>Could someone hide a gift using a closet?</p></div>",1,17,29,Hiding a gift using,hide a gift using,Can you hide a gift using,[NP] hid a gift using,a closet,a tarp,a cloud,invisibility,during,concepts,tool,critical,html-keyboard-response,0.23192453619459075,yes,probable,Could someone hide a gift using a closet?,session-65a05b470364e
anon_subject_28,659f04805339f753c1b65235,65a05a6f2bb7751b509056c3,30,0.0-3.0-0.10,69244,1377,"<div style=""font-size:20px;""><p>Could someone knit a scarf using for?</p></div>",0,15,27,Knitting a scarf using,knit a scarf using,Can you knit a scarf using,[NP] knitted a scarf using,yarn,wire,lava,telepathy,for,sadness,material,critical,html-keyboard-response,0.23192453619459075,no,inconceivable_syntactic,Could someone knit a scarf using for?,session-65a05b470364e
anon_subject_28,659f04805339f753c1b65235,65a05a6f2bb7751b509056c3,32,0.0-3.0-0.11,71707,1456,"<div style=""font-size:20px;""><p>Could someone fly a kite using witchcraft?</p></div>",0,4,7,Flying a kite using,fly a kite using,Can you fly a kite using,[NP] flew a kite using,string,dental floss,lead,witchcraft,give,a sound,tool,critical,html-keyboard-response,0.23192453619459075,no,impossible_magic,Could someone fly a kite using witchcraft?,session-65a05b470364e
anon_subject_28,659f04805339f753c1b65235,65a05a6f2bb7751b509056c3,34,0.0-3.0-0.12,74588,1872,"<div style=""font-size:20px;""><p>Could someone shovel a driveway full of snow?</p></div>",1,13,25,Shoveling a driveway full of,shovel a driveway full of,Can you shovel a driveway full of,[NP] shoveled a driveway full of,snow,ice,sunshine,ogres,except,rumors,material,critical,html-keyboard-response,0.23192453619459075,yes,probable,Could someone shovel a driveway full of snow?,session-65a05b470364e
anon_subject_28,659f04805339f753c1b65235,65a05a6f2bb7751b509056c3,36,0.0-3.0-0.13,76954,1361,"<div style=""font-size:20px;""><p>Could someone chill a drink using snow?</p></div>",1,2,4,Chilling a drink using,chill a drink using,Can you chill a drink using,[NP] chilled a drink using,ice,snow,fire,pixies,at,tomorrow,tool,critical,html-keyboard-response,0.23192453619459075,yes,improbable,Could someone chill a drink using snow?,session-65a05b470364e
anon_subject_28,659f04805339f753c1b65235,65a05a6f2bb7751b509056c3,38,0.0-3.0-0.14,79547,1587,"<div style=""font-size:20px;""><p>Could someone construct a tower using concrete?</p></div>",1,14,26,Constructing a tower using,construct a tower using,Can you construct a tower using,[NP] constructed a tower using,concrete,blocks,a lake,[POSS] mind,while,laughter,material,critical,html-keyboard-response,0.23192453619459075,yes,probable,Could someone construct a tower using concrete?,session-65a05b470364e
anon_subject_28,659f04805339f753c1b65235,65a05a6f2bb7751b509056c3,40,0.0-3.0-0.15,81962,1410,"<div style=""font-size:20px;""><p>Could someone paint a house using questions?</p></div>",0,8,14,Painting a house using,paint a house using,Can you paint a house using,[NP] painted a house using,a brush,a mop,a planet,incantations,before,questions,tool,critical,html-keyboard-response,0.23192453619459075,no,inconceivable_semantic,Could someone paint a house using questions?,session-65a05b470364e
anon_subject_28,659f04805339f753c1b65235,65a05a6f2bb7751b509056c3,42,0.0-3.0-0.16,85340,2370,"<div style=""font-size:20px;""><p>Could someone bake a cake using a refrigerator?</p></div>",1,1,1,Baking a cake using,bake a cake using,Can you bake a cake using,[NP] baked a cake using,an oven,an airfryer,a refrigerator,superpowers,grasp,anger,tool,critical,html-keyboard-response,0.23192453619459075,yes,impossible_physics,Could someone bake a cake using a refrigerator?,session-65a05b470364e
anon_subject_28,659f04805339f753c1b65235,65a05a6f2bb7751b509056c3,44,0.0-3.0-0.17,89370,3024,"<div style=""font-size:20px;""><p>Could someone craft a bowl out of smoke?</p></div>",0,5,8,Crafting a bowl out of,craft a bowl out of,Can you craft a bowl out of,[NP] crafted a bowl out of,clay,mud,smoke,auras,forget,friction,material,critical,html-keyboard-response,0.23192453619459075,no,impossible_physics,Could someone craft a bowl out of smoke?,session-65a05b470364e
anon_subject_48,659f04805339f753c1b65235,65a05a84c58774cde45fed65,42,0.0-3.0-0.0,153278,2034,"<div style=""font-size:20px;""><p>Could someone craft a bowl out of mud?</p></div>",1,5,8,Crafting a bowl out of,craft a bowl out of,Can you craft a bowl out of,[NP] crafted a bowl out of,clay,mud,smoke,auras,forget,friction,material,critical,html-keyboard-response,0.419133092128984,yes,improbable,Could someone craft a bowl out of mud?,session-65a05b7603cc7
anon_subject_48,659f04805339f753c1b65235,65a05a84c58774cde45fed65,44,0.0-3.0-0.1,157488,3194,"<div style=""font-size:20px;""><p>Could someone wash their hair with though?</p></div>",0,16,28,Washing your hair with,wash your hair with,Can you wash your hair with,[NP] washed [POSS] hair with,shampoo,detergent,air,mermaids,though,minutes,tool,critical,html-keyboard-response,0.419133092128984,no,inconceivable_syntactic,Could someone wash their hair with though?,session-65a05b7603cc7
anon_subject_48,659f04805339f753c1b65235,65a05a84c58774cde45fed65,46,0.0-3.0-0.2,162698,4194,"<div style=""font-size:20px;""><p>Could someone seal a box using wine?</p></div>",0,9,17,Sealing a box using,seal a box using,Can you seal a box using,[NP] sealed a box using,tape,magnets,wine,sorcery,do,jokes,tool,critical,html-keyboard-response,0.419133092128984,no,impossible_physics,Could someone seal a box using wine?,session-65a05b7603cc7
anon_subject_48,659f04805339f753c1b65235,65a05a84c58774cde45fed65,48,0.0-3.0-0.3,165373,1673,"<div style=""font-size:20px;""><p>Could someone tow a car using freedom?</p></div>",0,11,22,Towing a car using,tow a car using,Can you tow a car using,[NP] towed a car using,a truck,a horse,a butterfly,aliens,then,freedom,tool,critical,html-keyboard-response,0.419133092128984,no,inconceivable_semantic,Could someone tow a car using freedom?,session-65a05b7603cc7
anon_subject_48,659f04805339f753c1b65235,65a05a84c58774cde45fed65,50,0.0-3.0-0.4,168104,1720,"<div style=""font-size:20px;""><p>Could someone fly a kite using string?</p></div>",1,4,7,Flying a kite using,fly a kite using,Can you fly a kite using,[NP] flew a kite using,string,dental floss,lead,witchcraft,give,a sound,tool,critical,html-keyboard-response,0.419133092128984,yes,probable,Could someone fly a kite using string?,session-65a05b7603cc7
anon_subject_48,659f04805339f753c1b65235,65a05a84c58774cde45fed65,52,0.0-3.0-0.5,170864,1754,"<div style=""font-size:20px;""><p>Could someone construct a tower using blocks?</p></div>",1,14,26,Constructing a tower using,construct a tower using,Can you construct a tower using,[NP] constructed a tower using,concrete,blocks,a lake,[POSS] mind,while,laughter,material,critical,html-keyboard-response,0.419133092128984,yes,improbable,Could someone construct a tower using blocks?,session-65a05b7603cc7
anon_subject_48,659f04805339f753c1b65235,65a05a84c58774cde45fed65,54,0.0-3.0-0.6,173545,1664,"<div style=""font-size:20px;""><p>Could someone knit a scarf using telepathy?</p></div>",0,15,27,Knitting a scarf using,knit a scarf using,Can you knit a scarf using,[NP] knitted a scarf using,yarn,wire,lava,telepathy,for,sadness,material,critical,html-keyboard-response,0.419133092128984,no,impossible_magic,Could someone knit a scarf using telepathy?,session-65a05b7603cc7
anon_subject_48,659f04805339f753c1b65235,65a05a84c58774cde45fed65,56,0.0-3.0-0.7,176506,1957,"<div style=""font-size:20px;""><p>Could someone construct a castle using boredom?</p></div>",0,10,20,Constructing a castle using,construct a castle using,Can you construct a castle using,[NP] constructed a castle using,bricks,gems,a star,wizardry,follow,boredom,tool,critical,html-keyboard-response,0.419133092128984,no,inconceivable_semantic,Could someone construct a castle using boredom?,session-65a05b7603cc7
anon_subject_48,659f04805339f753c1b65235,65a05a84c58774cde45fed65,58,0.0-3.0-0.8,178796,1288,"<div style=""font-size:20px;""><p>Could someone grow vegetables in soil?</p></div>",1,6,9,Growing vegetables in,grow vegetables in,Can you grow vegetables in,[NP] grew vegetables in,soil,sand,bleach,a potion,become,justice,material,critical,html-keyboard-response,0.419133092128984,yes,probable,Could someone grow vegetables in soil?,session-65a05b7603cc7
anon_subject_48,659f04805339f753c1b65235,65a05a84c58774cde45fed65,60,0.0-3.0-0.9,182130,2331,"<div style=""font-size:20px;""><p>Could someone draw a picture using always?</p></div>",0,18,30,Drawing a picture using,draw a picture using,Can you draw a picture using,[NP] drew a picture using,a pencil,lipstick,a mountain,magic,always,a smell,tool,critical,html-keyboard-response,0.419133092128984,no,inconceivable_syntactic,Could someone draw a picture using always?,session-65a05b7603cc7
anon_subject_48,659f04805339f753c1b65235,65a05a84c58774cde45fed65,62,0.0-3.0-0.10,184792,1647,"<div style=""font-size:20px;""><p>Could someone wash dishes using fell?</p></div>",0,3,5,Washing dishes using,wash dishes using,Can you wash dishes using,[NP] washed dishes using,soap,rain,lightning,fairies,fell,arithmetic,tool,critical,html-keyboard-response,0.419133092128984,no,inconceivable_syntactic,Could someone wash dishes using fell?,session-65a05b7603cc7
anon_subject_48,659f04805339f753c1b65235,65a05a84c58774cde45fed65,64,0.0-3.0-0.11,188547,2749,"<div style=""font-size:20px;""><p>Could someone chill a drink using snow?</p></div>",1,2,4,Chilling a drink using,chill a drink using,Can you chill a drink using,[NP] chilled a drink using,ice,snow,fire,pixies,at,tomorrow,tool,critical,html-keyboard-response,0.419133092128984,yes,improbable,Could someone chill a drink using snow?,session-65a05b7603cc7
anon_subject_48,659f04805339f753c1b65235,65a05a84c58774cde45fed65,66,0.0-3.0-0.12,194215,4658,"<div style=""font-size:20px;""><p>Could someone hide a gift using concepts?</p></div>",0,17,29,Hiding a gift using,hide a gift using,Can you hide a gift using,[NP] hid a gift using,a closet,a tarp,a cloud,invisibility,during,concepts,tool,critical,html-keyboard-response,0.419133092128984,no,inconceivable_semantic,Could someone hide a gift using concepts?,session-65a05b7603cc7
anon_subject_48,659f04805339f753c1b65235,65a05a84c58774cde45fed65,68,0.0-3.0-0.13,197070,1851,"<div style=""font-size:20px;""><p>Could someone bake a cake using an oven?</p></div>",1,1,1,Baking a cake using,bake a cake using,Can you bake a cake using,[NP] baked a cake using,an oven,an airfryer,a refrigerator,superpowers,grasp,anger,tool,critical,html-keyboard-response,0.419133092128984,yes,probable,Could someone bake a cake using an oven?,session-65a05b7603cc7
anon_subject_48,659f04805339f753c1b65235,65a05a84c58774cde45fed65,70,0.0-3.0-0.14,200081,1993,"<div style=""font-size:20px;""><p>Could someone shovel a driveway full of ogres?</p></div>",0,13,25,Shoveling a driveway full of,shovel a driveway full of,Can you shovel a driveway full of,[NP] shoveled a driveway full of,snow,ice,sunshine,ogres,except,rumors,material,critical,html-keyboard-response,0.419133092128984,no,impossible_magic,Could someone shovel a driveway full of ogres?,session-65a05b7603cc7
anon_subject_48,659f04805339f753c1b65235,65a05a84c58774cde45fed65,72,0.0-3.0-0.15,203764,2677,"<div style=""font-size:20px;""><p>Could someone start a fire using enchantments?</p></div>",0,12,23,Starting a fire using,start a fire using,Can you start a fire using,[NP] started a fire using,kindling,furniture,milk,enchantments,sometimes,traffic,tool,critical,html-keyboard-response,0.419133092128984,no,impossible_magic,Could someone start a fire using enchantments?,session-65a05b7603cc7
anon_subject_48,659f04805339f753c1b65235,65a05a84c58774cde45fed65,74,0.0-3.0-0.16,206290,1511,"<div style=""font-size:20px;""><p>Could someone paint a house using a planet?</p></div>",0,8,14,Painting a house using,paint a house using,Can you paint a house using,[NP] painted a house using,a brush,a mop,a planet,incantations,before,questions,tool,critical,html-keyboard-response,0.419133092128984,no,impossible_physics,Could someone paint a house using a planet?,session-65a05b7603cc7
anon_subject_48,659f04805339f753c1b65235,65a05a84c58774cde45fed65,76,0.0-3.0-0.17,209965,2667,"<div style=""font-size:20px;""><p>Could someone brew coffee using glue?</p></div>",0,7,13,Brewing coffee using,brew coffee using,Can you brew coffee using,[NP] brewed coffee using,water,soda,glue,lightsabers,into,numbers,tool,critical,html-keyboard-response,0.419133092128984,no,impossible_physics,Could someone brew coffee using glue?,session-65a05b7603cc7
anon_subject_75,659f04805339f753c1b65235,65a0478029b65b56eb97c721,10,0.0-3.0-0.0,58513,1998,"<div style=""font-size:20px;""><p>Could someone hide a gift using during?</p></div>",0,17,29,Hiding a gift using,hide a gift using,Can you hide a gift using,[NP] hid a gift using,a closet,a tarp,a cloud,invisibility,during,concepts,tool,critical,html-keyboard-response,0.27540834490166843,no,inconceivable_syntactic,Could someone hide a gift using during?,session-65a04919e5681
anon_subject_75,659f04805339f753c1b65235,65a0478029b65b56eb97c721,12,0.0-3.0-0.1,61417,1889,"<div style=""font-size:20px;""><p>Could someone wash their hair with though?</p></div>",0,16,28,Washing your hair with,wash your hair with,Can you wash your hair with,[NP] washed [POSS] hair with,shampoo,detergent,air,mermaids,though,minutes,tool,critical,html-keyboard-response,0.27540834490166843,no,inconceivable_syntactic,Could someone wash their hair with though?,session-65a04919e5681
anon_subject_75,659f04805339f753c1b65235,65a0478029b65b56eb97c721,14,0.0-3.0-0.2,63969,1537,"<div style=""font-size:20px;""><p>Could someone draw a picture using always?</p></div>",0,18,30,Drawing a picture using,draw a picture using,Can you draw a picture using,[NP] drew a picture using,a pencil,lipstick,a mountain,magic,always,a smell,tool,critical,html-keyboard-response,0.27540834490166843,no,inconceivable_syntactic,Could someone draw a picture using always?,session-65a04919e5681
anon_subject_75,659f04805339f753c1b65235,65a0478029b65b56eb97c721,16,0.0-3.0-0.3,67217,2234,"<div style=""font-size:20px;""><p>Could someone shovel a driveway full of rumors?</p></div>",0,13,25,Shoveling a driveway full of,shovel a driveway full of,Can you shovel a driveway full of,[NP] shoveled a driveway full of,snow,ice,sunshine,ogres,except,rumors,material,critical,html-keyboard-response,0.27540834490166843,no,inconceivable_semantic,Could someone shovel a driveway full of rumors?,session-65a04919e5681
anon_subject_75,659f04805339f753c1b65235,65a0478029b65b56eb97c721,18,0.0-3.0-0.4,72759,4526,"<div style=""font-size:20px;""><p>Could someone craft a bowl out of mud?</p></div>",1,5,8,Crafting a bowl out of,craft a bowl out of,Can you craft a bowl out of,[NP] crafted a bowl out of,clay,mud,smoke,auras,forget,friction,material,critical,html-keyboard-response,0.27540834490166843,yes,improbable,Could someone craft a bowl out of mud?,session-65a04919e5681
anon_subject_75,659f04805339f753c1b65235,65a0478029b65b56eb97c721,20,0.0-3.0-0.5,76273,2505,"<div style=""font-size:20px;""><p>Could someone construct a castle using bricks?</p></div>",1,10,20,Constructing a castle using,construct a castle using,Can you construct a castle using,[NP] constructed a castle using,bricks,gems,a star,wizardry,follow,boredom,tool,critical,html-keyboard-response,0.27540834490166843,yes,probable,Could someone construct a castle using bricks?,session-65a04919e5681
anon_subject_75,659f04805339f753c1b65235,65a0478029b65b56eb97c721,22,0.0-3.0-0.6,79177,1899,"<div style=""font-size:20px;""><p>Could someone tow a car using a horse?</p></div>",1,11,22,Towing a car using,tow a car using,Can you tow a car using,[NP] towed a car using,a truck,a horse,a butterfly,aliens,then,freedom,tool,critical,html-keyboard-response,0.27540834490166843,yes,improbable,Could someone tow a car using a horse?,session-65a04919e5681
anon_subject_75,659f04805339f753c1b65235,65a0478029b65b56eb97c721,24,0.0-3.0-0.7,81943,1754,"<div style=""font-size:20px;""><p>Could someone chill a drink using fire?</p></div>",0,2,4,Chilling a drink using,chill a drink using,Can you chill a drink using,[NP] chilled a drink using,ice,snow,fire,pixies,at,tomorrow,tool,critical,html-keyboard-response,0.27540834490166843,no,impossible_physics,Could someone chill a drink using fire?,session-65a04919e5681
anon_subject_75,659f04805339f753c1b65235,65a0478029b65b56eb97c721,26,0.0-3.0-0.8,85297,2337,"<div style=""font-size:20px;""><p>Could someone paint a house using incantations?</p></div>",0,8,14,Painting a house using,paint a house using,Can you paint a house using,[NP] painted a house using,a brush,a mop,a planet,incantations,before,questions,tool,critical,html-keyboard-response,0.27540834490166843,no,impossible_magic,Could someone paint a house using incantations?,session-65a04919e5681
anon_subject_75,659f04805339f753c1b65235,65a0478029b65b56eb97c721,28,0.0-3.0-0.9,90160,3854,"<div style=""font-size:20px;""><p>Could someone knit a scarf using sadness?</p></div>",0,15,27,Knitting a scarf using,knit a scarf using,Can you knit a scarf using,[NP] knitted a scarf using,yarn,wire,lava,telepathy,for,sadness,material,critical,html-keyboard-response,0.27540834490166843,no,inconceivable_semantic,Could someone knit a scarf using sadness?,session-65a04919e5681
anon_subject_75,659f04805339f753c1b65235,65a0478029b65b56eb97c721,30,0.0-3.0-0.10,97393,6228,"<div style=""font-size:20px;""><p>Could someone wash dishes using lightning?</p></div>",0,3,5,Washing dishes using,wash dishes using,Can you wash dishes using,[NP] washed dishes using,soap,rain,lightning,fairies,fell,arithmetic,tool,critical,html-keyboard-response,0.27540834490166843,no,impossible_physics,Could someone wash dishes using lightning?,session-65a04919e5681
anon_subject_75,659f04805339f753c1b65235,65a0478029b65b56eb97c721,32,0.0-3.0-0.11,101961,3552,"<div style=""font-size:20px;""><p>Could someone bake a cake using a refrigerator?</p></div>",0,1,1,Baking a cake using,bake a cake using,Can you bake a cake using,[NP] baked a cake using,an oven,an airfryer,a refrigerator,superpowers,grasp,anger,tool,critical,html-keyboard-response,0.27540834490166843,no,impossible_physics,Could someone bake a cake using a refrigerator?,session-65a04919e5681
anon_subject_75,659f04805339f753c1b65235,65a0478029b65b56eb97c721,34,0.0-3.0-0.12,107527,4550,"<div style=""font-size:20px;""><p>Could someone brew coffee using water?</p></div>",1,7,13,Brewing coffee using,brew coffee using,Can you brew coffee using,[NP] brewed coffee using,water,soda,glue,lightsabers,into,numbers,tool,critical,html-keyboard-response,0.27540834490166843,yes,probable,Could someone brew coffee using water?,session-65a04919e5681
anon_subject_75,659f04805339f753c1b65235,65a0478029b65b56eb97c721,36,0.0-3.0-0.13,110448,1907,"<div style=""font-size:20px;""><p>Could someone start a fire using kindling?</p></div>",1,12,23,Starting a fire using,start a fire using,Can you start a fire using,[NP] started a fire using,kindling,furniture,milk,enchantments,sometimes,traffic,tool,critical,html-keyboard-response,0.27540834490166843,yes,probable,Could someone start a fire using kindling?,session-65a04919e5681
anon_subject_75,659f04805339f753c1b65235,65a0478029b65b56eb97c721,38,0.0-3.0-0.14,112968,1508,"<div style=""font-size:20px;""><p>Could someone construct a tower using laughter?</p></div>",0,14,26,Constructing a tower using,construct a tower using,Can you construct a tower using,[NP] constructed a tower using,concrete,blocks,a lake,[POSS] mind,while,laughter,material,critical,html-keyboard-response,0.27540834490166843,no,inconceivable_semantic,Could someone construct a tower using laughter?,session-65a04919e5681
anon_subject_75,659f04805339f753c1b65235,65a0478029b65b56eb97c721,40,0.0-3.0-0.15,118026,4042,"<div style=""font-size:20px;""><p>Could someone seal a box using magnets?</p></div>",1,9,17,Sealing a box using,seal a box using,Can you seal a box using,[NP] sealed a box using,tape,magnets,wine,sorcery,do,jokes,tool,critical,html-keyboard-response,0.27540834490166843,yes,improbable,Could someone seal a box using magnets?,session-65a04919e5681
anon_subject_75,659f04805339f753c1b65235,65a0478029b65b56eb97c721,42,0.0-3.0-0.16,128353,9323,"<div style=""font-size:20px;""><p>Could someone fly a kite using witchcraft?</p></div>",1,4,7,Flying a kite using,fly a kite using,Can you fly a kite using,[NP] flew a kite using,string,dental floss,lead,witchcraft,give,a sound,tool,critical,html-keyboard-response,0.27540834490166843,yes,impossible_magic,Could someone fly a kite using witchcraft?,session-65a04919e5681
anon_subject_75,659f04805339f753c1b65235,65a0478029b65b56eb97c721,44,0.0-3.0-0.17,139672,10315,"<div style=""font-size:20px;""><p>Could someone grow vegetables in a potion?</p></div>",0,6,9,Growing vegetables in,grow vegetables in,Can you grow vegetables in,[NP] grew vegetables in,soil,sand,bleach,a potion,become,justice,material,critical,html-keyboard-response,0.27540834490166843,no,impossible_magic,Could someone grow vegetables in a potion?,session-65a04919e5681
anon_subject_51,659f04805339f753c1b65235,65a03fae15177d3861dbe570,10,0.0-3.0-0.0,40820,2311,"<div style=""font-size:20px;""><p>Could someone draw a picture using a smell?</p></div>",0,18,30,Drawing a picture using,draw a picture using,Can you draw a picture using,[NP] drew a picture using,a pencil,lipstick,a mountain,magic,always,a smell,tool,critical,html-keyboard-response,0.37630558641665357,no,inconceivable_semantic,Could someone draw a picture using a smell?,session-65a04040ce87a
anon_subject_51,659f04805339f753c1b65235,65a03fae15177d3861dbe570,12,0.0-3.0-0.1,44402,2575,"<div style=""font-size:20px;""><p>Could someone brew coffee using into?</p></div>",0,7,13,Brewing coffee using,brew coffee using,Can you brew coffee using,[NP] brewed coffee using,water,soda,glue,lightsabers,into,numbers,tool,critical,html-keyboard-response,0.37630558641665357,no,inconceivable_syntactic,Could someone brew coffee using into?,session-65a04040ce87a
anon_subject_51,659f04805339f753c1b65235,65a03fae15177d3861dbe570,14,0.0-3.0-0.2,50557,5153,"<div style=""font-size:20px;""><p>Could someone paint a house using before?</p></div>",0,8,14,Painting a house using,paint a house using,Can you paint a house using,[NP] painted a house using,a brush,a mop,a planet,incantations,before,questions,tool,critical,html-keyboard-response,0.37630558641665357,no,inconceivable_syntactic,Could someone paint a house using before?,session-65a04040ce87a
anon_subject_51,659f04805339f753c1b65235,65a03fae15177d3861dbe570,16,0.0-3.0-0.3,54877,3319,"<div style=""font-size:20px;""><p>Could someone shovel a driveway full of except?</p></div>",1,13,25,Shoveling a driveway full of,shovel a driveway full of,Can you shovel a driveway full of,[NP] shoveled a driveway full of,snow,ice,sunshine,ogres,except,rumors,material,critical,html-keyboard-response,0.37630558641665357,yes,inconceivable_syntactic,Could someone shovel a driveway full of except?,session-65a04040ce87a
anon_subject_51,659f04805339f753c1b65235,65a03fae15177d3861dbe570,18,0.0-3.0-0.4,58738,2860,"<div style=""font-size:20px;""><p>Could someone tow a car using aliens?</p></div>",1,11,22,Towing a car using,tow a car using,Can you tow a car using,[NP] towed a car using,a truck,a horse,a butterfly,aliens,then,freedom,tool,critical,html-keyboard-response,0.37630558641665357,yes,impossible_magic,Could someone tow a car using aliens?,session-65a04040ce87a
anon_subject_51,659f04805339f753c1b65235,65a03fae15177d3861dbe570,20,0.0-3.0-0.5,62450,2701,"<div style=""font-size:20px;""><p>Could someone wash their hair with mermaids?</p></div>",0,16,28,Washing your hair with,wash your hair with,Can you wash your hair with,[NP] washed [POSS] hair with,shampoo,detergent,air,mermaids,though,minutes,tool,critical,html-keyboard-response,0.37630558641665357,no,impossible_magic,Could someone wash their hair with mermaids?,session-65a04040ce87a
anon_subject_51,659f04805339f753c1b65235,65a03fae15177d3861dbe570,22,0.0-3.0-0.6,66602,3141,"<div style=""font-size:20px;""><p>Could someone fly a kite using string?</p></div>",1,4,7,Flying a kite using,fly a kite using,Can you fly a kite using,[NP] flew a kite using,string,dental floss,lead,witchcraft,give,a sound,tool,critical,html-keyboard-response,0.37630558641665357,yes,probable,Could someone fly a kite using string?,session-65a04040ce87a
anon_subject_51,659f04805339f753c1b65235,65a03fae15177d3861dbe570,24,0.0-3.0-0.7,72684,5074,"<div style=""font-size:20px;""><p>Could someone chill a drink using pixies?</p></div>",0,2,4,Chilling a drink using,chill a drink using,Can you chill a drink using,[NP] chilled a drink using,ice,snow,fire,pixies,at,tomorrow,tool,critical,html-keyboard-response,0.37630558641665357,no,impossible_magic,Could someone chill a drink using pixies?,session-65a04040ce87a
anon_subject_51,659f04805339f753c1b65235,65a03fae15177d3861dbe570,26,0.0-3.0-0.8,78013,4319,"<div style=""font-size:20px;""><p>Could someone start a fire using furniture?</p></div>",1,12,23,Starting a fire using,start a fire using,Can you start a fire using,[NP] started a fire using,kindling,furniture,milk,enchantments,sometimes,traffic,tool,critical,html-keyboard-response,0.37630558641665357,yes,improbable,Could someone start a fire using furniture?,session-65a04040ce87a
anon_subject_51,659f04805339f753c1b65235,65a03fae15177d3861dbe570,28,0.0-3.0-0.9,81717,2691,"<div style=""font-size:20px;""><p>Could someone craft a bowl out of clay?</p></div>",1,5,8,Crafting a bowl out of,craft a bowl out of,Can you craft a bowl out of,[NP] crafted a bowl out of,clay,mud,smoke,auras,forget,friction,material,critical,html-keyboard-response,0.37630558641665357,yes,probable,Could someone craft a bowl out of clay?,session-65a04040ce87a
anon_subject_51,659f04805339f753c1b65235,65a03fae15177d3861dbe570,30,0.0-3.0-0.10,85024,2302,"<div style=""font-size:20px;""><p>Could someone construct a tower using a lake?</p></div>",0,14,26,Constructing a tower using,construct a tower using,Can you construct a tower using,[NP] constructed a tower using,concrete,blocks,a lake,[POSS] mind,while,laughter,material,critical,html-keyboard-response,0.37630558641665357,no,impossible_physics,Could someone construct a tower using a lake?,session-65a04040ce87a
anon_subject_51,659f04805339f753c1b65235,65a03fae15177d3861dbe570,32,0.0-3.0-0.11,88132,2097,"<div style=""font-size:20px;""><p>Could someone knit a scarf using sadness?</p></div>",0,15,27,Knitting a scarf using,knit a scarf using,Can you knit a scarf using,[NP] knitted a scarf using,yarn,wire,lava,telepathy,for,sadness,material,critical,html-keyboard-response,0.37630558641665357,no,inconceivable_semantic,Could someone knit a scarf using sadness?,session-65a04040ce87a
anon_subject_51,659f04805339f753c1b65235,65a03fae15177d3861dbe570,34,0.0-3.0-0.12,90780,1644,"<div style=""font-size:20px;""><p>Could someone wash dishes using rain?</p></div>",1,3,5,Washing dishes using,wash dishes using,Can you wash dishes using,[NP] washed dishes using,soap,rain,lightning,fairies,fell,arithmetic,tool,critical,html-keyboard-response,0.37630558641665357,yes,improbable,Could someone wash dishes using rain?,session-65a04040ce87a
anon_subject_51,659f04805339f753c1b65235,65a03fae15177d3861dbe570,36,0.0-3.0-0.13,93652,1858,"<div style=""font-size:20px;""><p>Could someone grow vegetables in bleach?</p></div>",0,6,9,Growing vegetables in,grow vegetables in,Can you grow vegetables in,[NP] grew vegetables in,soil,sand,bleach,a potion,become,justice,material,critical,html-keyboard-response,0.37630558641665357,no,impossible_physics,Could someone grow vegetables in bleach?,session-65a04040ce87a
anon_subject_51,659f04805339f753c1b65235,65a03fae15177d3861dbe570,38,0.0-3.0-0.14,98892,4239,"<div style=""font-size:20px;""><p>Could someone hide a gift using a cloud?</p></div>",1,17,29,Hiding a gift using,hide a gift using,Can you hide a gift using,[NP] hid a gift using,a closet,a tarp,a cloud,invisibility,during,concepts,tool,critical,html-keyboard-response,0.37630558641665357,yes,impossible_physics,Could someone hide a gift using a cloud?,session-65a04040ce87a
anon_subject_51,659f04805339f753c1b65235,65a03fae15177d3861dbe570,40,0.0-3.0-0.15,101806,1899,"<div style=""font-size:20px;""><p>Could someone construct a castle using gems?</p></div>",1,10,20,Constructing a castle using,construct a castle using,Can you construct a castle using,[NP] constructed a castle using,bricks,gems,a star,wizardry,follow,boredom,tool,critical,html-keyboard-response,0.37630558641665357,yes,improbable,Could someone construct a castle using gems?,session-65a04040ce87a
anon_subject_51,659f04805339f753c1b65235,65a03fae15177d3861dbe570,42,0.0-3.0-0.16,105254,2442,"<div style=""font-size:20px;""><p>Could someone bake a cake using an oven?</p></div>",1,1,1,Baking a cake using,bake a cake using,Can you bake a cake using,[NP] baked a cake using,an oven,an airfryer,a refrigerator,superpowers,grasp,anger,tool,critical,html-keyboard-response,0.37630558641665357,yes,probable,Could someone bake a cake using an oven?,session-65a04040ce87a
anon_subject_51,659f04805339f753c1b65235,65a03fae15177d3861dbe570,44,0.0-3.0-0.17,108849,2585,"<div style=""font-size:20px;""><p>Could someone seal a box using jokes?</p></div>",0,9,17,Sealing a box using,seal a box using,Can you seal a box using,[NP] sealed a box using,tape,magnets,wine,sorcery,do,jokes,tool,critical,html-keyboard-response,0.37630558641665357,no,inconceivable_semantic,Could someone seal a box using jokes?,session-65a04040ce87a
anon_subject_192,659f04805339f753c1b65235,65a02a8b15177d3861dbe02e,18,0.0-3.0-0.0,195148,8017,"<div style=""font-size:20px;""><p>Could someone wash their hair with detergent?</p></div>",1,16,28,Washing your hair with,wash your hair with,Can you wash your hair with,[NP] washed [POSS] hair with,shampoo,detergent,air,mermaids,though,minutes,tool,critical,html-keyboard-response,0.7261492057711199,yes,improbable,Could someone wash their hair with detergent?,session-65a02c23dc123
anon_subject_192,659f04805339f753c1b65235,65a02a8b15177d3861dbe02e,20,0.0-3.0-0.1,215061,18908,"<div style=""font-size:20px;""><p>Could someone construct a tower using [POSS] mind?</p></div>",0,14,26,Constructing a tower using,construct a tower using,Can you construct a tower using,[NP] constructed a tower using,concrete,blocks,a lake,[POSS] mind,while,laughter,material,critical,html-keyboard-response,0.7261492057711199,no,impossible_magic,Could someone construct a tower using [POSS] mind?,session-65a02c23dc123
anon_subject_192,659f04805339f753c1b65235,65a02a8b15177d3861dbe02e,22,0.0-3.0-0.2,225349,9281,"<div style=""font-size:20px;""><p>Could someone chill a drink using at?</p></div>",1,2,4,Chilling a drink using,chill a drink using,Can you chill a drink using,[NP] chilled a drink using,ice,snow,fire,pixies,at,tomorrow,tool,critical,html-keyboard-response,0.7261492057711199,yes,inconceivable_syntactic,Could someone chill a drink using at?,session-65a02c23dc123
anon_subject_192,659f04805339f753c1b65235,65a02a8b15177d3861dbe02e,24,0.0-3.0-0.3,233627,7265,"<div style=""font-size:20px;""><p>Could someone start a fire using kindling?</p></div>",0,12,23,Starting a fire using,start a fire using,Can you start a fire using,[NP] started a fire using,kindling,furniture,milk,enchantments,sometimes,traffic,tool,critical,html-keyboard-response,0.7261492057711199,no,probable,Could someone start a fire using kindling?,session-65a02c23dc123
anon_subject_192,659f04805339f753c1b65235,65a02a8b15177d3861dbe02e,26,0.0-3.0-0.4,239362,4723,"<div style=""font-size:20px;""><p>Could someone bake a cake using grasp?</p></div>",0,1,1,Baking a cake using,bake a cake using,Can you bake a cake using,[NP] baked a cake using,an oven,an airfryer,a refrigerator,superpowers,grasp,anger,tool,critical,html-keyboard-response,0.7261492057711199,no,inconceivable_syntactic,Could someone bake a cake using grasp?,session-65a02c23dc123
anon_subject_192,659f04805339f753c1b65235,65a02a8b15177d3861dbe02e,28,0.0-3.0-0.5,246885,6517,"<div style=""font-size:20px;""><p>Could someone shovel a driveway full of sunshine?</p></div>",0,13,25,Shoveling a driveway full of,shovel a driveway full of,Can you shovel a driveway full of,[NP] shoveled a driveway full of,snow,ice,sunshine,ogres,except,rumors,material,critical,html-keyboard-response,0.7261492057711199,no,impossible_physics,Could someone shovel a driveway full of sunshine?,session-65a02c23dc123
anon_subject_192,659f04805339f753c1b65235,65a02a8b15177d3861dbe02e,30,0.0-3.0-0.6,268387,20496,"<div style=""font-size:20px;""><p>Could someone grow vegetables in a potion?</p></div>",0,6,9,Growing vegetables in,grow vegetables in,Can you grow vegetables in,[NP] grew vegetables in,soil,sand,bleach,a potion,become,justice,material,critical,html-keyboard-response,0.7261492057711199,no,impossible_magic,Could someone grow vegetables in a potion?,session-65a02c23dc123
anon_subject_192,659f04805339f753c1b65235,65a02a8b15177d3861dbe02e,32,0.0-3.0-0.7,272843,3446,"<div style=""font-size:20px;""><p>Could someone craft a bowl out of forget?</p></div>",0,5,8,Crafting a bowl out of,craft a bowl out of,Can you craft a bowl out of,[NP] crafted a bowl out of,clay,mud,smoke,auras,forget,friction,material,critical,html-keyboard-response,0.7261492057711199,no,inconceivable_syntactic,Could someone craft a bowl out of forget?,session-65a02c23dc123
anon_subject_192,659f04805339f753c1b65235,65a02a8b15177d3861dbe02e,34,0.0-3.0-0.8,276597,2741,"<div style=""font-size:20px;""><p>Could someone paint a house using questions?</p></div>",0,8,14,Painting a house using,paint a house using,Can you paint a house using,[NP] painted a house using,a brush,a mop,a planet,incantations,before,questions,tool,critical,html-keyboard-response,0.7261492057711199,no,inconceivable_semantic,Could someone paint a house using questions?,session-65a02c23dc123
anon_subject_192,659f04805339f753c1b65235,65a02a8b15177d3861dbe02e,36,0.0-3.0-0.9,280634,3031,"<div style=""font-size:20px;""><p>Could someone wash dishes using lightning?</p></div>",0,3,5,Washing dishes using,wash dishes using,Can you wash dishes using,[NP] washed dishes using,soap,rain,lightning,fairies,fell,arithmetic,tool,critical,html-keyboard-response,0.7261492057711199,no,impossible_physics,Could someone wash dishes using lightning?,session-65a02c23dc123
anon_subject_192,659f04805339f753c1b65235,65a02a8b15177d3861dbe02e,38,0.0-3.0-0.10,284868,3223,"<div style=""font-size:20px;""><p>Could someone knit a scarf using sadness?</p></div>",0,15,27,Knitting a scarf using,knit a scarf using,Can you knit a scarf using,[NP] knitted a scarf using,yarn,wire,lava,telepathy,for,sadness,material,critical,html-keyboard-response,0.7261492057711199,no,inconceivable_semantic,Could someone knit a scarf using sadness?,session-65a02c23dc123
anon_subject_192,659f04805339f753c1b65235,65a02a8b15177d3861dbe02e,40,0.0-3.0-0.11,293762,7892,"<div style=""font-size:20px;""><p>Could someone hide a gift using a cloud?</p></div>",0,17,29,Hiding a gift using,hide a gift using,Can you hide a gift using,[NP] hid a gift using,a closet,a tarp,a cloud,invisibility,during,concepts,tool,critical,html-keyboard-response,0.7261492057711199,no,impossible_physics,Could someone hide a gift using a cloud?,session-65a02c23dc123
anon_subject_192,659f04805339f753c1b65235,65a02a8b15177d3861dbe02e,42,0.0-3.0-0.12,297884,3114,"<div style=""font-size:20px;""><p>Could someone draw a picture using lipstick?</p></div>",1,18,30,Drawing a picture using,draw a picture using,Can you draw a picture using,[NP] drew a picture using,a pencil,lipstick,a mountain,magic,always,a smell,tool,critical,html-keyboard-response,0.7261492057711199,yes,improbable,Could someone draw a picture using lipstick?,session-65a02c23dc123
anon_subject_192,659f04805339f753c1b65235,65a02a8b15177d3861dbe02e,44,0.0-3.0-0.13,306923,8036,"<div style=""font-size:20px;""><p>Could someone construct a castle using gems?</p></div>",0,10,20,Constructing a castle using,construct a castle using,Can you construct a castle using,[NP] constructed a castle using,bricks,gems,a star,wizardry,follow,boredom,tool,critical,html-keyboard-response,0.7261492057711199,no,improbable,Could someone construct a castle using gems?,session-65a02c23dc123
anon_subject_192,659f04805339f753c1b65235,65a02a8b15177d3861dbe02e,46,0.0-3.0-0.14,311226,3289,"<div style=""font-size:20px;""><p>Could someone fly a kite using string?</p></div>",1,4,7,Flying a kite using,fly a kite using,Can you fly a kite using,[NP] flew a kite using,string,dental floss,lead,witchcraft,give,a sound,tool,critical,html-keyboard-response,0.7261492057711199,yes,probable,Could someone fly a kite using string?,session-65a02c23dc123
anon_subject_192,659f04805339f753c1b65235,65a02a8b15177d3861dbe02e,48,0.0-3.0-0.15,316380,4150,"<div style=""font-size:20px;""><p>Could someone brew coffee using numbers?</p></div>",0,7,13,Brewing coffee using,brew coffee using,Can you brew coffee using,[NP] brewed coffee using,water,soda,glue,lightsabers,into,numbers,tool,critical,html-keyboard-response,0.7261492057711199,no,inconceivable_semantic,Could someone brew coffee using numbers?,session-65a02c23dc123
anon_subject_192,659f04805339f753c1b65235,65a02a8b15177d3861dbe02e,50,0.0-3.0-0.16,322243,4857,"<div style=""font-size:20px;""><p>Could someone tow a car using aliens?</p></div>",0,11,22,Towing a car using,tow a car using,Can you tow a car using,[NP] towed a car using,a truck,a horse,a butterfly,aliens,then,freedom,tool,critical,html-keyboard-response,0.7261492057711199,no,impossible_magic,Could someone tow a car using aliens?,session-65a02c23dc123
anon_subject_192,659f04805339f753c1b65235,65a02a8b15177d3861dbe02e,52,0.0-3.0-0.17,329603,6344,"<div style=""font-size:20px;""><p>Could someone seal a box using tape?</p></div>",1,9,17,Sealing a box using,seal a box using,Can you seal a box using,[NP] sealed a box using,tape,magnets,wine,sorcery,do,jokes,tool,critical,html-keyboard-response,0.7261492057711199,yes,probable,Could someone seal a box using tape?,session-65a02c23dc123
anon_subject_69,659f04805339f753c1b65235,65a0471c5068c51fec46d7ee,10,0.0-3.0-0.0,31250,2055,"<div style=""font-size:20px;""><p>Could someone construct a tower using concrete?</p></div>",1,14,26,Constructing a tower using,construct a tower using,Can you construct a tower using,[NP] constructed a tower using,concrete,blocks,a lake,[POSS] mind,while,laughter,material,critical,html-keyboard-response,0.492064134132981,yes,probable,Could someone construct a tower using concrete?,session-65a047aba18b0
anon_subject_69,659f04805339f753c1b65235,65a0471c5068c51fec46d7ee,12,0.0-3.0-0.1,34602,2341,"<div style=""font-size:20px;""><p>Could someone paint a house using questions?</p></div>",0,8,14,Painting a house using,paint a house using,Can you paint a house using,[NP] painted a house using,a brush,a mop,a planet,incantations,before,questions,tool,critical,html-keyboard-response,0.492064134132981,no,inconceivable_semantic,Could someone paint a house using questions?,session-65a047aba18b0
anon_subject_69,659f04805339f753c1b65235,65a0471c5068c51fec46d7ee,14,0.0-3.0-0.2,37170,1558,"<div style=""font-size:20px;""><p>Could someone draw a picture using lipstick?</p></div>",1,18,30,Drawing a picture using,draw a picture using,Can you draw a picture using,[NP] drew a picture using,a pencil,lipstick,a mountain,magic,always,a smell,tool,critical,html-keyboard-response,0.492064134132981,yes,improbable,Could someone draw a picture using lipstick?,session-65a047aba18b0
anon_subject_69,659f04805339f753c1b65235,65a0471c5068c51fec46d7ee,16,0.0-3.0-0.3,39450,1272,"<div style=""font-size:20px;""><p>Could someone craft a bowl out of forget?</p></div>",0,5,8,Crafting a bowl out of,craft a bowl out of,Can you craft a bowl out of,[NP] crafted a bowl out of,clay,mud,smoke,auras,forget,friction,material,critical,html-keyboard-response,0.492064134132981,no,inconceivable_syntactic,Could someone craft a bowl out of forget?,session-65a047aba18b0
anon_subject_69,659f04805339f753c1b65235,65a0471c5068c51fec46d7ee,18,0.0-3.0-0.4,41985,1530,"<div style=""font-size:20px;""><p>Could someone tow a car using aliens?</p></div>",0,11,22,Towing a car using,tow a car using,Can you tow a car using,[NP] towed a car using,a truck,a horse,a butterfly,aliens,then,freedom,tool,critical,html-keyboard-response,0.492064134132981,no,impossible_magic,Could someone tow a car using aliens?,session-65a047aba18b0
anon_subject_69,659f04805339f753c1b65235,65a0471c5068c51fec46d7ee,20,0.0-3.0-0.5,44882,1879,"<div style=""font-size:20px;""><p>Could someone wash dishes using lightning?</p></div>",0,3,5,Washing dishes using,wash dishes using,Can you wash dishes using,[NP] washed dishes using,soap,rain,lightning,fairies,fell,arithmetic,tool,critical,html-keyboard-response,0.492064134132981,no,impossible_physics,Could someone wash dishes using lightning?,session-65a047aba18b0
anon_subject_69,659f04805339f753c1b65235,65a0471c5068c51fec46d7ee,22,0.0-3.0-0.6,48857,2969,"<div style=""font-size:20px;""><p>Could someone knit a scarf using for?</p></div>",0,15,27,Knitting a scarf using,knit a scarf using,Can you knit a scarf using,[NP] knitted a scarf using,yarn,wire,lava,telepathy,for,sadness,material,critical,html-keyboard-response,0.492064134132981,no,inconceivable_syntactic,Could someone knit a scarf using for?,session-65a047aba18b0
anon_subject_69,659f04805339f753c1b65235,65a0471c5068c51fec46d7ee,24,0.0-3.0-0.7,51345,1479,"<div style=""font-size:20px;""><p>Could someone bake a cake using a refrigerator?</p></div>",0,1,1,Baking a cake using,bake a cake using,Can you bake a cake using,[NP] baked a cake using,an oven,an airfryer,a refrigerator,superpowers,grasp,anger,tool,critical,html-keyboard-response,0.492064134132981,no,impossible_physics,Could someone bake a cake using a refrigerator?,session-65a047aba18b0
anon_subject_69,659f04805339f753c1b65235,65a0471c5068c51fec46d7ee,26,0.0-3.0-0.8,54810,2456,"<div style=""font-size:20px;""><p>Could someone construct a castle using wizardry?</p></div>",0,10,20,Constructing a castle using,construct a castle using,Can you construct a castle using,[NP] constructed a castle using,bricks,gems,a star,wizardry,follow,boredom,tool,critical,html-keyboard-response,0.492064134132981,no,impossible_magic,Could someone construct a castle using wizardry?,session-65a047aba18b0
anon_subject_69,659f04805339f753c1b65235,65a0471c5068c51fec46d7ee,28,0.0-3.0-0.9,60049,4228,"<div style=""font-size:20px;""><p>Could someone wash their hair with air?</p></div>",1,16,28,Washing your hair with,wash your hair with,Can you wash your hair with,[NP] washed [POSS] hair with,shampoo,detergent,air,mermaids,though,minutes,tool,critical,html-keyboard-response,0.492064134132981,yes,impossible_physics,Could someone wash their hair with air?,session-65a047aba18b0
anon_subject_69,659f04805339f753c1b65235,65a0471c5068c51fec46d7ee,30,0.0-3.0-0.10,64657,3600,"<div style=""font-size:20px;""><p>Could someone start a fire using furniture?</p></div>",1,12,23,Starting a fire using,start a fire using,Can you start a fire using,[NP] started a fire using,kindling,furniture,milk,enchantments,sometimes,traffic,tool,critical,html-keyboard-response,0.492064134132981,yes,improbable,Could someone start a fire using furniture?,session-65a047aba18b0
anon_subject_69,659f04805339f753c1b65235,65a0471c5068c51fec46d7ee,32,0.0-3.0-0.11,68186,2515,"<div style=""font-size:20px;""><p>Could someone chill a drink using pixies?</p></div>",0,2,4,Chilling a drink using,chill a drink using,Can you chill a drink using,[NP] chilled a drink using,ice,snow,fire,pixies,at,tomorrow,tool,critical,html-keyboard-response,0.492064134132981,no,impossible_magic,Could someone chill a drink using pixies?,session-65a047aba18b0
anon_subject_69,659f04805339f753c1b65235,65a0471c5068c51fec46d7ee,34,0.0-3.0-0.12,70298,1100,"<div style=""font-size:20px;""><p>Could someone fly a kite using string?</p></div>",1,4,7,Flying a kite using,fly a kite using,Can you fly a kite using,[NP] flew a kite using,string,dental floss,lead,witchcraft,give,a sound,tool,critical,html-keyboard-response,0.492064134132981,yes,probable,Could someone fly a kite using string?,session-65a047aba18b0
anon_subject_69,659f04805339f753c1b65235,65a0471c5068c51fec46d7ee,36,0.0-3.0-0.13,72914,1606,"<div style=""font-size:20px;""><p>Could someone seal a box using magnets?</p></div>",1,9,17,Sealing a box using,seal a box using,Can you seal a box using,[NP] sealed a box using,tape,magnets,wine,sorcery,do,jokes,tool,critical,html-keyboard-response,0.492064134132981,yes,improbable,Could someone seal a box using magnets?,session-65a047aba18b0
anon_subject_69,659f04805339f753c1b65235,65a0471c5068c51fec46d7ee,38,0.0-3.0-0.14,79810,5892,"<div style=""font-size:20px;""><p>Could someone hide a gift using concepts?</p></div>",1,17,29,Hiding a gift using,hide a gift using,Can you hide a gift using,[NP] hid a gift using,a closet,a tarp,a cloud,invisibility,during,concepts,tool,critical,html-keyboard-response,0.492064134132981,yes,inconceivable_semantic,Could someone hide a gift using concepts?,session-65a047aba18b0
anon_subject_69,659f04805339f753c1b65235,65a0471c5068c51fec46d7ee,40,0.0-3.0-0.15,82970,2145,"<div style=""font-size:20px;""><p>Could someone brew coffee using numbers?</p></div>",0,7,13,Brewing coffee using,brew coffee using,Can you brew coffee using,[NP] brewed coffee using,water,soda,glue,lightsabers,into,numbers,tool,critical,html-keyboard-response,0.492064134132981,no,inconceivable_semantic,Could someone brew coffee using numbers?,session-65a047aba18b0
anon_subject_69,659f04805339f753c1b65235,65a0471c5068c51fec46d7ee,42,0.0-3.0-0.16,85586,1612,"<div style=""font-size:20px;""><p>Could someone shovel a driveway full of snow?</p></div>",1,13,25,Shoveling a driveway full of,shovel a driveway full of,Can you shovel a driveway full of,[NP] shoveled a driveway full of,snow,ice,sunshine,ogres,except,rumors,material,critical,html-keyboard-response,0.492064134132981,yes,probable,Could someone shovel a driveway full of snow?,session-65a047aba18b0
anon_subject_69,659f04805339f753c1b65235,65a0471c5068c51fec46d7ee,44,0.0-3.0-0.17,88313,1725,"<div style=""font-size:20px;""><p>Could someone grow vegetables in become?</p></div>",0,6,9,Growing vegetables in,grow vegetables in,Can you grow vegetables in,[NP] grew vegetables in,soil,sand,bleach,a potion,become,justice,material,critical,html-keyboard-response,0.492064134132981,no,inconceivable_syntactic,Could someone grow vegetables in become?,session-65a047aba18b0
anon_subject_149,659f04805339f753c1b65235,65a0473a461451c85ed4f43e,10,0.0-3.0-0.0,27300,2068,"<div style=""font-size:20px;""><p>Could someone start a fire using traffic?</p></div>",1,12,23,Starting a fire using,start a fire using,Can you start a fire using,[NP] started a fire using,kindling,furniture,milk,enchantments,sometimes,traffic,tool,critical,html-keyboard-response,0.9785815176210615,yes,inconceivable_semantic,Could someone start a fire using traffic?,session-65a0479944049
anon_subject_149,659f04805339f753c1b65235,65a0473a461451c85ed4f43e,12,0.0-3.0-0.1,29829,1524,"<div style=""font-size:20px;""><p>Could someone brew coffee using water?</p></div>",1,7,13,Brewing coffee using,brew coffee using,Can you brew coffee using,[NP] brewed coffee using,water,soda,glue,lightsabers,into,numbers,tool,critical,html-keyboard-response,0.9785815176210615,yes,probable,Could someone brew coffee using water?,session-65a0479944049
anon_subject_149,659f04805339f753c1b65235,65a0473a461451c85ed4f43e,14,0.0-3.0-0.2,32357,1524,"<div style=""font-size:20px;""><p>Could someone wash their hair with minutes?</p></div>",1,16,28,Washing your hair with,wash your hair with,Can you wash your hair with,[NP] washed [POSS] hair with,shampoo,detergent,air,mermaids,though,minutes,tool,critical,html-keyboard-response,0.9785815176210615,yes,inconceivable_semantic,Could someone wash their hair with minutes?,session-65a0479944049
anon_subject_149,659f04805339f753c1b65235,65a0473a461451c85ed4f43e,16,0.0-3.0-0.3,34873,1512,"<div style=""font-size:20px;""><p>Could someone knit a scarf using sadness?</p></div>",0,15,27,Knitting a scarf using,knit a scarf using,Can you knit a scarf using,[NP] knitted a scarf using,yarn,wire,lava,telepathy,for,sadness,material,critical,html-keyboard-response,0.9785815176210615,no,inconceivable_semantic,Could someone knit a scarf using sadness?,session-65a0479944049
anon_subject_149,659f04805339f753c1b65235,65a0473a461451c85ed4f43e,18,0.0-3.0-0.4,37020,1144,"<div style=""font-size:20px;""><p>Could someone bake a cake using a refrigerator?</p></div>",0,1,1,Baking a cake using,bake a cake using,Can you bake a cake using,[NP] baked a cake using,an oven,an airfryer,a refrigerator,superpowers,grasp,anger,tool,critical,html-keyboard-response,0.9785815176210615,no,impossible_physics,Could someone bake a cake using a refrigerator?,session-65a0479944049
anon_subject_149,659f04805339f753c1b65235,65a0473a461451c85ed4f43e,20,0.0-3.0-0.5,39223,1199,"<div style=""font-size:20px;""><p>Could someone wash dishes using rain?</p></div>",0,3,5,Washing dishes using,wash dishes using,Can you wash dishes using,[NP] washed dishes using,soap,rain,lightning,fairies,fell,arithmetic,tool,critical,html-keyboard-response,0.9785815176210615,no,improbable,Could someone wash dishes using rain?,session-65a0479944049
anon_subject_149,659f04805339f753c1b65235,65a0473a461451c85ed4f43e,22,0.0-3.0-0.6,43334,3107,"<div style=""font-size:20px;""><p>Could someone tow a car using a horse?</p></div>",0,11,22,Towing a car using,tow a car using,Can you tow a car using,[NP] towed a car using,a truck,a horse,a butterfly,aliens,then,freedom,tool,critical,html-keyboard-response,0.9785815176210615,no,improbable,Could someone tow a car using a horse?,session-65a0479944049
anon_subject_149,659f04805339f753c1b65235,65a0473a461451c85ed4f43e,24,0.0-3.0-0.7,45986,1648,"<div style=""font-size:20px;""><p>Could someone craft a bowl out of clay?</p></div>",1,5,8,Crafting a bowl out of,craft a bowl out of,Can you craft a bowl out of,[NP] crafted a bowl out of,clay,mud,smoke,auras,forget,friction,material,critical,html-keyboard-response,0.9785815176210615,yes,probable,Could someone craft a bowl out of clay?,session-65a0479944049
anon_subject_149,659f04805339f753c1b65235,65a0473a461451c85ed4f43e,26,0.0-3.0-0.8,49656,2666,"<div style=""font-size:20px;""><p>Could someone chill a drink using at?</p></div>",0,2,4,Chilling a drink using,chill a drink using,Can you chill a drink using,[NP] chilled a drink using,ice,snow,fire,pixies,at,tomorrow,tool,critical,html-keyboard-response,0.9785815176210615,no,inconceivable_syntactic,Could someone chill a drink using at?,session-65a0479944049
anon_subject_149,659f04805339f753c1b65235,65a0473a461451c85ed4f43e,28,0.0-3.0-0.9,52414,1754,"<div style=""font-size:20px;""><p>Could someone construct a castle using gems?</p></div>",0,10,20,Constructing a castle using,construct a castle using,Can you construct a castle using,[NP] constructed a castle using,bricks,gems,a star,wizardry,follow,boredom,tool,critical,html-keyboard-response,0.9785815176210615,no,improbable,Could someone construct a castle using gems?,session-65a0479944049
anon_subject_149,659f04805339f753c1b65235,65a0473a461451c85ed4f43e,30,0.0-3.0-0.10,55271,1853,"<div style=""font-size:20px;""><p>Could someone fly a kite using give?</p></div>",0,4,7,Flying a kite using,fly a kite using,Can you fly a kite using,[NP] flew a kite using,string,dental floss,lead,witchcraft,give,a sound,tool,critical,html-keyboard-response,0.9785815176210615,no,inconceivable_syntactic,Could someone fly a kite using give?,session-65a0479944049
anon_subject_149,659f04805339f753c1b65235,65a0473a461451c85ed4f43e,32,0.0-3.0-0.11,58301,2026,"<div style=""font-size:20px;""><p>Could someone hide a gift using a cloud?</p></div>",0,17,29,Hiding a gift using,hide a gift using,Can you hide a gift using,[NP] hid a gift using,a closet,a tarp,a cloud,invisibility,during,concepts,tool,critical,html-keyboard-response,0.9785815176210615,no,impossible_physics,Could someone hide a gift using a cloud?,session-65a0479944049
anon_subject_149,659f04805339f753c1b65235,65a0473a461451c85ed4f43e,34,0.0-3.0-0.12,61606,2301,"<div style=""font-size:20px;""><p>Could someone construct a tower using [POSS] mind?</p></div>",0,14,26,Constructing a tower using,construct a tower using,Can you construct a tower using,[NP] constructed a tower using,concrete,blocks,a lake,[POSS] mind,while,laughter,material,critical,html-keyboard-response,0.9785815176210615,no,impossible_magic,Could someone construct a tower using [POSS] mind?,session-65a0479944049
anon_subject_149,659f04805339f753c1b65235,65a0473a461451c85ed4f43e,36,0.0-3.0-0.13,64406,1797,"<div style=""font-size:20px;""><p>Could someone shovel a driveway full of ogres?</p></div>",0,13,25,Shoveling a driveway full of,shovel a driveway full of,Can you shovel a driveway full of,[NP] shoveled a driveway full of,snow,ice,sunshine,ogres,except,rumors,material,critical,html-keyboard-response,0.9785815176210615,no,impossible_magic,Could someone shovel a driveway full of ogres?,session-65a0479944049
anon_subject_149,659f04805339f753c1b65235,65a0473a461451c85ed4f43e,38,0.0-3.0-0.14,66475,1065,"<div style=""font-size:20px;""><p>Could someone paint a house using a brush?</p></div>",1,8,14,Painting a house using,paint a house using,Can you paint a house using,[NP] painted a house using,a brush,a mop,a planet,incantations,before,questions,tool,critical,html-keyboard-response,0.9785815176210615,yes,probable,Could someone paint a house using a brush?,session-65a0479944049
anon_subject_149,659f04805339f753c1b65235,65a0473a461451c85ed4f43e,40,0.0-3.0-0.15,69034,1555,"<div style=""font-size:20px;""><p>Could someone seal a box using do?</p></div>",0,9,17,Sealing a box using,seal a box using,Can you seal a box using,[NP] sealed a box using,tape,magnets,wine,sorcery,do,jokes,tool,critical,html-keyboard-response,0.9785815176210615,no,inconceivable_syntactic,Could someone seal a box using do?,session-65a0479944049
anon_subject_149,659f04805339f753c1b65235,65a0473a461451c85ed4f43e,42,0.0-3.0-0.16,71537,1500,"<div style=""font-size:20px;""><p>Could someone grow vegetables in a potion?</p></div>",0,6,9,Growing vegetables in,grow vegetables in,Can you grow vegetables in,[NP] grew vegetables in,soil,sand,bleach,a potion,become,justice,material,critical,html-keyboard-response,0.9785815176210615,no,impossible_magic,Could someone grow vegetables in a potion?,session-65a0479944049
anon_subject_149,659f04805339f753c1b65235,65a0473a461451c85ed4f43e,44,0.0-3.0-0.17,74542,2001,"<div style=""font-size:20px;""><p>Could someone draw a picture using a mountain?</p></div>",0,18,30,Drawing a picture using,draw a picture using,Can you draw a picture using,[NP] drew a picture using,a pencil,lipstick,a mountain,magic,always,a smell,tool,critical,html-keyboard-response,0.9785815176210615,no,impossible_physics,Could someone draw a picture using a mountain?,session-65a0479944049
anon_subject_122,659f04805339f753c1b65235,65a03fd56bac4df6251b8e9a,10,0.0-3.0-0.0,44920,2222,"<div style=""font-size:20px;""><p>Could someone start a fire using milk?</p></div>",0,12,23,Starting a fire using,start a fire using,Can you start a fire using,[NP] started a fire using,kindling,furniture,milk,enchantments,sometimes,traffic,tool,critical,html-keyboard-response,0.2970422426465522,no,impossible_physics,Could someone start a fire using milk?,session-65a0405d43889
anon_subject_122,659f04805339f753c1b65235,65a03fd56bac4df6251b8e9a,12,0.0-3.0-0.1,48609,2682,"<div style=""font-size:20px;""><p>Could someone construct a castle using boredom?</p></div>",0,10,20,Constructing a castle using,construct a castle using,Can you construct a castle using,[NP] constructed a castle using,bricks,gems,a star,wizardry,follow,boredom,tool,critical,html-keyboard-response,0.2970422426465522,no,inconceivable_semantic,Could someone construct a castle using boredom?,session-65a0405d43889
anon_subject_122,659f04805339f753c1b65235,65a03fd56bac4df6251b8e9a,14,0.0-3.0-0.2,51712,2100,"<div style=""font-size:20px;""><p>Could someone bake a cake using superpowers?</p></div>",0,1,1,Baking a cake using,bake a cake using,Can you bake a cake using,[NP] baked a cake using,an oven,an airfryer,a refrigerator,superpowers,grasp,anger,tool,critical,html-keyboard-response,0.2970422426465522,no,impossible_magic,Could someone bake a cake using superpowers?,session-65a0405d43889
anon_subject_122,659f04805339f753c1b65235,65a03fd56bac4df6251b8e9a,16,0.0-3.0-0.3,57321,4602,"<div style=""font-size:20px;""><p>Could someone construct a tower using [POSS] mind?</p></div>",0,14,26,Constructing a tower using,construct a tower using,Can you construct a tower using,[NP] constructed a tower using,concrete,blocks,a lake,[POSS] mind,while,laughter,material,critical,html-keyboard-response,0.2970422426465522,no,impossible_magic,Could someone construct a tower using [POSS] mind?,session-65a0405d43889
anon_subject_122,659f04805339f753c1b65235,65a03fd56bac4df6251b8e9a,18,0.0-3.0-0.4,61543,3215,"<div style=""font-size:20px;""><p>Could someone wash dishes using lightning?</p></div>",0,3,5,Washing dishes using,wash dishes using,Can you wash dishes using,[NP] washed dishes using,soap,rain,lightning,fairies,fell,arithmetic,tool,critical,html-keyboard-response,0.2970422426465522,no,impossible_physics,Could someone wash dishes using lightning?,session-65a0405d43889
anon_subject_122,659f04805339f753c1b65235,65a03fd56bac4df6251b8e9a,20,0.0-3.0-0.5,67250,4699,"<div style=""font-size:20px;""><p>Could someone draw a picture using a smell?</p></div>",1,18,30,Drawing a picture using,draw a picture using,Can you draw a picture using,[NP] drew a picture using,a pencil,lipstick,a mountain,magic,always,a smell,tool,critical,html-keyboard-response,0.2970422426465522,yes,inconceivable_semantic,Could someone draw a picture using a smell?,session-65a0405d43889
anon_subject_122,659f04805339f753c1b65235,65a03fd56bac4df6251b8e9a,22,0.0-3.0-0.6,70056,1788,"<div style=""font-size:20px;""><p>Could someone paint a house using a brush?</p></div>",1,8,14,Painting a house using,paint a house using,Can you paint a house using,[NP] painted a house using,a brush,a mop,a planet,incantations,before,questions,tool,critical,html-keyboard-response,0.2970422426465522,yes,probable,Could someone paint a house using a brush?,session-65a0405d43889
anon_subject_122,659f04805339f753c1b65235,65a03fd56bac4df6251b8e9a,24,0.0-3.0-0.7,73608,2545,"<div style=""font-size:20px;""><p>Could someone craft a bowl out of forget?</p></div>",0,5,8,Crafting a bowl out of,craft a bowl out of,Can you craft a bowl out of,[NP] crafted a bowl out of,clay,mud,smoke,auras,forget,friction,material,critical,html-keyboard-response,0.2970422426465522,no,inconceivable_syntactic,Could someone craft a bowl out of forget?,session-65a0405d43889
anon_subject_122,659f04805339f753c1b65235,65a03fd56bac4df6251b8e9a,26,0.0-3.0-0.8,77136,2525,"<div style=""font-size:20px;""><p>Could someone chill a drink using fire?</p></div>",0,2,4,Chilling a drink using,chill a drink using,Can you chill a drink using,[NP] chilled a drink using,ice,snow,fire,pixies,at,tomorrow,tool,critical,html-keyboard-response,0.2970422426465522,no,impossible_physics,Could someone chill a drink using fire?,session-65a0405d43889
anon_subject_122,659f04805339f753c1b65235,65a03fd56bac4df6251b8e9a,28,0.0-3.0-0.9,80696,2554,"<div style=""font-size:20px;""><p>Could someone fly a kite using string?</p></div>",1,4,7,Flying a kite using,fly a kite using,Can you fly a kite using,[NP] flew a kite using,string,dental floss,lead,witchcraft,give,a sound,tool,critical,html-keyboard-response,0.2970422426465522,yes,probable,Could someone fly a kite using string?,session-65a0405d43889
anon_subject_122,659f04805339f753c1b65235,65a03fd56bac4df6251b8e9a,30,0.0-3.0-0.10,84937,3235,"<div style=""font-size:20px;""><p>Could someone brew coffee using water?</p></div>",1,7,13,Brewing coffee using,brew coffee using,Can you brew coffee using,[NP] brewed coffee using,water,soda,glue,lightsabers,into,numbers,tool,critical,html-keyboard-response,0.2970422426465522,yes,probable,Could someone brew coffee using water?,session-65a0405d43889
anon_subject_122,659f04805339f753c1b65235,65a03fd56bac4df6251b8e9a,32,0.0-3.0-0.11,87969,2016,"<div style=""font-size:20px;""><p>Could someone tow a car using a horse?</p></div>",1,11,22,Towing a car using,tow a car using,Can you tow a car using,[NP] towed a car using,a truck,a horse,a butterfly,aliens,then,freedom,tool,critical,html-keyboard-response,0.2970422426465522,yes,improbable,Could someone tow a car using a horse?,session-65a0405d43889
