view_history,rt,trial_type,trial_index,time_elapsed,internal_node_id,subject_id,study_id,session_id,rng_seed,task_type,session_file_id
"[{'page_index': 0, 'viewing_time': 3284}]",3284,instructions,0,3287,0.0-0.0,anon_subject_285,659f04805339f753c1b65235,65a03ef5ee5c94479846d5af,0.06914232995603098,instructions,session-65a04185c5cb4
"[{'page_index': 0, 'viewing_time': 9156}]",9156,instructions,0,9157,0.0-0.0,anon_subject_30,659f04805339f753c1b65235,65a0471539341d75b93cf885,0.7930852442032413,instructions,session-65a04795a47b9
"[{'page_index': 0, 'viewing_time': 14719}]",14719,instructions,0,14722,0.0-0.0,anon_subject_146,659f04805339f753c1b65235,65a047892086d07cc8439b7d,0.6874473965112899,instructions,session-65a0480f36680
"[{'page_index': 0, 'viewing_time': 4623}]",4623,instructions,0,4632,0.0-0.0,anon_subject_42,659f04805339f753c1b65235,65a0479e591c52695cdbe8c1,0.4290670587524601,instructions,session-65a0480f911e6
"[{'page_index': 0, 'viewing_time': 18309}]",18311,instructions,0,18326,0.0-0.0,anon_subject_28,659f04805339f753c1b65235,65a05a6f2bb7751b509056c3,0.23192453619459075,instructions,session-65a05b470364e
"[{'page_index': 0, 'viewing_time': 24347}]",24347,instructions,0,24350,0.0-0.0,anon_subject_48,659f04805339f753c1b65235,65a05a84c58774cde45fed65,0.419133092128984,instructions,session-65a05b7603cc7
"[{'page_index': 0, 'viewing_time': 28887}]",28888,instructions,0,28894,0.0-0.0,anon_subject_75,659f04805339f753c1b65235,65a0478029b65b56eb97c721,0.27540834490166843,instructions,session-65a04919e5681
"[{'page_index': 0, 'viewing_time': 14724}]",14724,instructions,0,14728,0.0-0.0,anon_subject_51,659f04805339f753c1b65235,65a03fae15177d3861dbe570,0.37630558641665357,instructions,session-65a04040ce87a
"[{'page_index': 0, 'viewing_time': 3008}]",3009,instructions,0,3012,0.0-0.0,anon_subject_192,659f04805339f753c1b65235,65a02a8b15177d3861dbe02e,0.7261492057711199,instructions,session-65a02c23dc123
"[{'page_index': 0, 'viewing_time': 9046}]",9046,instructions,0,9046,0.0-0.0,anon_subject_69,659f04805339f753c1b65235,65a0471c5068c51fec46d7ee,0.492064134132981,instructions,session-65a047aba18b0
"[{'page_index': 0, 'viewing_time': 8587}]",8588,instructions,0,8600,0.0-0.0,anon_subject_149,659f04805339f753c1b65235,65a0473a461451c85ed4f43e,0.9785815176210615,instructions,session-65a0479944049
"[{'page_index': 0, 'viewing_time': 16925}]",16925,instructions,0,16927,0.0-0.0,anon_subject_122,659f04805339f753c1b65235,65a03fd56bac4df6251b8e9a,0.2970422426465522,instructions,session-65a0405d43889
"[{'page_index': 0, 'viewing_time': 17003}]",17003,instructions,0,17006,0.0-0.0,anon_subject_260,659f04805339f753c1b65235,65a05a7e0f99dc411697c9da,0.41642503139060016,instructions,session-65a05ae85fd46
"[{'page_index': 0, 'viewing_time': 19113}]",19113,instructions,0,19115,0.0-0.0,anon_subject_18,659f04805339f753c1b65235,65a03fde5747bb3166d4efa7,0.22086302821812365,instructions,session-65a0406e32d44
"[{'page_index': 0, 'viewing_time': 15286}]",15287,instructions,0,15295,0.0-0.0,anon_subject_115,659f04805339f753c1b65235,65a03f5a9b6bc005fb6bdd8c,0.023534266892762945,instructions,session-65a042c51f700
"[{'page_index': 0, 'viewing_time': 22838}]",22838,instructions,0,22842,0.0-0.0,anon_subject_273,659f04805339f753c1b65235,65a03edbe1f78d9853e38d4a,0.06950995915245839,instructions,session-65a03fbee4532
"[{'page_index': 0, 'viewing_time': 1813}]",1813,instructions,0,1814,0.0-0.0,anon_subject_148,659f04805339f753c1b65235,65a05a73420a02f3939b3822,0.47982684962880273,instructions,session-65a05aff81c21
"[{'page_index': 0, 'viewing_time': 31458}]",31459,instructions,0,31472,0.0-0.0,anon_subject_182,659f04805339f753c1b65235,65a05af2d15130d9d4b37b82,0.9899203577273183,instructions,session-65a05bd669c7e
"[{'page_index': 0, 'viewing_time': 10133}]",10133,instructions,0,10151,0.0-0.0,anon_subject_283,659f04805339f753c1b65235,65a0472810105f4dafafadc7,0.10775709584813598,instructions,session-65a0481a49e7f
"[{'page_index': 0, 'viewing_time': 11922}]",11923,instructions,0,11928,0.0-0.0,anon_subject_38,659f04805339f753c1b65235,65a05a7b731e49bdea1b960e,0.4296889899488068,instructions,session-65a05af29ed0e
"[{'page_index': 0, 'viewing_time': 12653}]",12659,instructions,0,12695,0.0-0.0,anon_subject_40,659f04805339f753c1b65235,65a05a56d046c4fd2b905550,0.8652360972420416,instructions,session-65a05ad846229
"[{'page_index': 0, 'viewing_time': 35959}]",35960,instructions,0,35963,0.0-0.0,anon_subject_33,659f04805339f753c1b65235,65a05a71731e49bdea1b9608,0.8671376453229853,instructions,session-65a05b368f9c2
"[{'page_index': 0, 'viewing_time': 20269}]",20270,instructions,0,20276,0.0-0.0,anon_subject_58,659f04805339f753c1b65235,65a05a766243e6d43e3848f3,0.1601628060619844,instructions,session-65a05b2792131
"[{'page_index': 0, 'viewing_time': 17276}]",17276,instructions,0,17286,0.0-0.0,anon_subject_245,659f04805339f753c1b65235,65a0477b214275fb72e5c482,0.12949789192006866,instructions,session-65a047fa9445d
"[{'page_index': 0, 'viewing_time': 5884}]",5884,instructions,0,5889,0.0-0.0,anon_subject_220,659f04805339f753c1b65235,65a047a30f99dc411697c56b,0.15072385912554465,instructions,session-65a047f5f2438
"[{'page_index': 0, 'viewing_time': 1619}]",1619,instructions,0,1623,0.0-0.0,anon_subject_62,659f04805339f753c1b65235,65a0476a6616b428b14127ba,0.34688334679888744,instructions,session-65a047d23846c
"[{'page_index': 0, 'viewing_time': 8324}]",8325,instructions,0,8327,0.0-0.0,anon_subject_222,659f04805339f753c1b65235,65a0478e30f6e0140ae07e12,0.9859379947080251,instructions,session-65a0480b04557
"[{'page_index': 0, 'viewing_time': 6572}]",6573,instructions,0,6575,0.0-0.0,anon_subject_65,659f04805339f753c1b65235,65a03ec1e9530f6f213f1f98,0.4583006771593543,instructions,session-65a03f51bc127
"[{'page_index': 0, 'viewing_time': 9673}]",9674,instructions,0,9679,0.0-0.0,anon_subject_57,659f04805339f753c1b65235,65a0474397cef2e56e5feaeb,0.22416830333820004,instructions,session-65a047b4bcc4f
"[{'page_index': 0, 'viewing_time': 118405}]",118405,instructions,0,118409,0.0-0.0,anon_subject_153,659f04805339f753c1b65235,65a05a7a6451f41271c335ac,0.29939097638608025,instructions,session-65a05bd004480
"[{'page_index': 0, 'viewing_time': 25544}]",25545,instructions,0,25550,0.0-0.0,anon_subject_20,659f04805339f753c1b65235,65a03f9afbe002ebe6cd90eb,0.7855397335322527,instructions,session-65a040818c85e
"[{'page_index': 0, 'viewing_time': 42542}]",42543,instructions,0,42547,0.0-0.0,anon_subject_234,659f04805339f753c1b65235,65a02bb95f6b46129434f096,0.35162161587616536,instructions,session-65a02cb5d867d
"[{'page_index': 0, 'viewing_time': 1529}]",1529,instructions,0,1529,0.0-0.0,anon_subject_13,659f04805339f753c1b65235,65a0470cb70cd6898be5c4b4,0.17572265766989936,instructions,session-65a047712d1f3
"[{'page_index': 0, 'viewing_time': 19264}]",19265,instructions,0,19270,0.0-0.0,anon_subject_258,659f04805339f753c1b65235,65a02b49c799135a5fbddad4,0.5090755799922926,instructions,session-65a02c1eef806
"[{'page_index': 0, 'viewing_time': 16130}]",16130,instructions,0,16139,0.0-0.0,anon_subject_279,659f04805339f753c1b65235,65a03f90f26ea2d9988b753b,0.4453762110642303,instructions,session-65a0400a61353
"[{'page_index': 0, 'viewing_time': 8899}]",8899,instructions,0,8903,0.0-0.0,anon_subject_91,659f04805339f753c1b65235,65a03ed5363e8fc9b18a7eb3,0.660096675978014,instructions,session-65a03f362aff1
"[{'page_index': 0, 'viewing_time': 470936}]",470938,instructions,0,470943,0.0-0.0,anon_subject_128,659f04805339f753c1b65235,65a0474cd96f47480f33e5c0,0.02398083019733588,instructions,session-65a04993420b1
"[{'page_index': 0, 'viewing_time': 47665}]",47665,instructions,0,47665,0.0-0.0,anon_subject_254,659f04805339f753c1b65235,65a05b6115177d3861dbec3f,0.07790554074160405,instructions,session-65a05c1864ec6
"[{'page_index': 0, 'viewing_time': 26621}]",26621,instructions,0,26624,0.0-0.0,anon_subject_276,659f04805339f753c1b65235,65a047ae9066460e83748fd6,0.527510709597748,instructions,session-65a048afa58a6
"[{'page_index': 0, 'viewing_time': 31286}]",31287,instructions,0,31300,0.0-0.0,anon_subject_244,659f04805339f753c1b65235,65a05a5a731e49bdea1b9600,0.38751929832980925,instructions,session-65a05bd000657
"[{'page_index': 0, 'viewing_time': 12854}]",12854,instructions,0,12866,0.0-0.0,anon_subject_181,659f04805339f753c1b65235,65a03f701ffc042b4f545c75,0.26518176603136623,instructions,session-65a03fec09389
"[{'page_index': 0, 'viewing_time': 53044}]",53044,instructions,0,53048,0.0-0.0,anon_subject_107,659f04805339f753c1b65235,65a03f783e71fc9f72cd91c7,0.5210110424534102,instructions,session-65a04033a0ec5
"[{'page_index': 0, 'viewing_time': 43548}]",43549,instructions,0,43566,0.0-0.0,anon_subject_133,659f04805339f753c1b65235,65a04749f51e8f6fd7a743a3,0.5104510701590899,instructions,session-65a048bb4a52b
"[{'page_index': 0, 'viewing_time': 16276}]",16276,instructions,0,16284,0.0-0.0,anon_subject_290,659f04805339f753c1b65235,65a03f302159acf46857ff8d,0.26138414994028847,instructions,session-65a04067edcbf
"[{'page_index': 0, 'viewing_time': 22666}]",22666,instructions,0,22671,0.0-0.0,anon_subject_34,659f04805339f753c1b65235,65a04790fcd1e50633ac35c2,0.7572490404532561,instructions,session-65a04834c6250
"[{'page_index': 0, 'viewing_time': 23598}]",23598,instructions,0,23600,0.0-0.0,anon_subject_100,659f04805339f753c1b65235,65a03eb12526f0c2765ca39b,0.39447283722353355,instructions,session-65a03f547a3c0
"[{'page_index': 0, 'viewing_time': 32262}]",32263,instructions,0,32268,0.0-0.0,anon_subject_24,659f04805339f753c1b65235,65a03f64ee5c94479846d5d1,0.7502314815888207,instructions,session-65a0402b0caee
"[{'page_index': 0, 'viewing_time': 65329}]",65330,instructions,0,65334,0.0-0.0,anon_subject_236,659f04805339f753c1b65235,65a03f17cb1340048e21034e,0.9355140316739947,instructions,session-65a0408b98e5b
"[{'page_index': 0, 'viewing_time': 34481}]",34481,instructions,0,34483,0.0-0.0,anon_subject_169,659f04805339f753c1b65235,65a05a60afefad5d38f372e2,0.28789187637557345,instructions,session-65a05b175dd44
"[{'page_index': 0, 'viewing_time': 19663}]",19664,instructions,0,19670,0.0-0.0,anon_subject_39,659f04805339f753c1b65235,65a05a7097cef2e56e5ff016,0.9865838288692361,instructions,session-65a05b056049a
"[{'page_index': 0, 'viewing_time': 10257}]",10258,instructions,0,10261,0.0-0.0,anon_subject_228,659f04805339f753c1b65235,65a02da2158e1166c55f4805,0.6331516146143021,instructions,session-65a02eaac68f9
"[{'page_index': 0, 'viewing_time': 23877}]",23877,instructions,0,23994,0.0-0.0,anon_subject_208,659f04805339f753c1b65235,65a03ea3fc7c4acd585d5f99,0.9043168482406388,instructions,session-65a03f3e9d711
"[{'page_index': 0, 'viewing_time': 13597}]",13597,instructions,0,13599,0.0-0.0,anon_subject_135,659f04805339f753c1b65235,65a027e846af5282e74c23ba,0.9562123336792084,instructions,session-65a0288579c79
"[{'page_index': 0, 'viewing_time': 10223}]",10223,instructions,0,10226,0.0-0.0,anon_subject_108,659f04805339f753c1b65235,65a0472c5068c51fec46d7f4,0.669953994252998,instructions,session-65a0479d56db7
"[{'page_index': 0, 'viewing_time': 25929}]",25930,instructions,0,25937,0.0-0.0,anon_subject_203,659f04805339f753c1b65235,65a05a80fcd1e50633ac3a85,0.03156731321970008,instructions,session-65a05b3062cab
"[{'page_index': 0, 'viewing_time': 29233}]",29234,instructions,0,29241,0.0-0.0,anon_subject_270,659f04805339f753c1b65235,65a05a98f34b5631810f80f0,0.19200286173063308,instructions,session-65a05bae7c14a
"[{'page_index': 0, 'viewing_time': 2486}]",2487,instructions,0,2491,0.0-0.0,anon_subject_36,659f04805339f753c1b65235,65a03f18c9e1a662cc1f605f,0.8424170852455777,instructions,session-65a040092721c
"[{'page_index': 0, 'viewing_time': 85261}]",85261,instructions,0,85265,0.0-0.0,anon_subject_195,659f04805339f753c1b65235,65a05a652a197f9cd83e47bd,0.08079297549991327,instructions,session-65a05b3772d19
"[{'page_index': 0, 'viewing_time': 15169}]",15169,instructions,0,15174,0.0-0.0,anon_subject_157,659f04805339f753c1b65235,65a05a7de68d1344f3d2b07e,0.07519901952352348,instructions,session-65a05b2bcb6e1
"[{'page_index': 0, 'viewing_time': 2592}]",2594,instructions,0,2621,0.0-0.0,anon_subject_159,659f04805339f753c1b65235,65a0478f5068c51fec46d804,0.9366310111096849,instructions,session-65a0486200e71
"[{'page_index': 0, 'viewing_time': 3454}]",3454,instructions,0,3455,0.0-0.0,anon_subject_118,659f04805339f753c1b65235,65a03eb0264dee80cb4a91b9,0.9464230368279836,instructions,session-65a03f313ede3
"[{'page_index': 0, 'viewing_time': 10821}]",10821,instructions,0,10827,0.0-0.0,anon_subject_187,659f04805339f753c1b65235,65a04df36616b428b1412966,0.3409365989325661,instructions,session-65a04e5cb9a86
"[{'page_index': 0, 'viewing_time': 29489}]",29490,instructions,0,29496,0.0-0.0,anon_subject_230,659f04805339f753c1b65235,65a027b43ac2f375865f4796,0.539422361423439,instructions,session-65a028b8dfc73
"[{'page_index': 0, 'viewing_time': 15393}]",15396,instructions,0,15402,0.0-0.0,anon_subject_162,659f04805339f753c1b65235,65a03fb02a197f9cd83e4130,0.608887415889483,instructions,session-65a0403f5a935
"[{'page_index': 0, 'viewing_time': 24148}]",24149,instructions,0,24165,0.0-0.0,anon_subject_164,659f04805339f753c1b65235,65a03ef98320fc7c6257ab14,0.8302337997901403,instructions,session-65a03f9950f9c
"[{'page_index': 0, 'viewing_time': 1466}]",1467,instructions,0,1469,0.0-0.0,anon_subject_184,659f04805339f753c1b65235,65a0481eba9f28bc37c44d6f,0.3633344649811525,instructions,session-65a0492cd4f98
"[{'page_index': 0, 'viewing_time': 9336}]",9336,instructions,0,9339,0.0-0.0,anon_subject_2,659f04805339f753c1b65235,65a0473f6e869bf85df4d846,0.3390884251104017,instructions,session-65a0479790b96
"[{'page_index': 0, 'viewing_time': 14197}]",14197,instructions,0,14200,0.0-0.0,anon_subject_3,659f04805339f753c1b65235,65a05a746f96899614f27aaf,0.6854585070917787,instructions,session-65a05adad4275
"[{'page_index': 0, 'viewing_time': 3026}]",3027,instructions,0,3030,0.0-0.0,anon_subject_68,659f04805339f753c1b65235,65a047969066460e83748fd1,0.9549287625584775,instructions,session-65a048efb8a49
"[{'page_index': 0, 'viewing_time': 24691}]",24691,instructions,0,24700,0.0-0.0,anon_subject_172,659f04805339f753c1b65235,65a02582395b2717c94c2371,0.9273621050172716,instructions,session-65a02601b7232
"[{'page_index': 0, 'viewing_time': 1489}]",1489,instructions,0,1490,0.0-0.0,anon_subject_250,659f04805339f753c1b65235,65a05c955aba9e5f885bfc99,0.35229718550149713,instructions,session-65a05d6160679
"[{'page_index': 0, 'viewing_time': 15727}]",15728,instructions,0,15735,0.0-0.0,anon_subject_158,659f04805339f753c1b65235,65a05a79c58774cde45fed62,0.5495041603427855,instructions,session-65a05af008de2
"[{'page_index': 0, 'viewing_time': 3007}]",3008,instructions,0,3013,0.0-0.0,anon_subject_47,659f04805339f753c1b65235,65a0245a6428f6802cf26fe3,0.5718226216142261,instructions,session-65a024eeee8f2
"[{'page_index': 0, 'viewing_time': 12859}]",12859,instructions,0,12863,0.0-0.0,anon_subject_175,659f04805339f753c1b65235,65a05a64b70cd6898be5c9a8,0.8050535166364963,instructions,session-65a05bffa391f
"[{'page_index': 0, 'viewing_time': 28786}]",28786,instructions,0,28789,0.0-0.0,anon_subject_251,659f04805339f753c1b65235,65a02a15eeee5416c5400a52,0.011360161522806056,instructions,session-65a02ac49d097
"[{'page_index': 0, 'viewing_time': 3165}]",3165,instructions,0,3171,0.0-0.0,anon_subject_272,659f04805339f753c1b65235,65a0479eccba17a0c394abd1,0.8720480729364403,instructions,session-65a0481e87e9e
"[{'page_index': 0, 'viewing_time': 12955}]",12955,instructions,0,12958,0.0-0.0,anon_subject_298,659f04805339f753c1b65235,65a0293d5aba9e5f885beff2,0.517775510437086,instructions,session-65a029f633cbd
"[{'page_index': 0, 'viewing_time': 32166}]",32166,instructions,0,32166,0.0-0.0,anon_subject_282,659f04805339f753c1b65235,65a03fb16af24254f25d6062,0.08473310130444456,instructions,session-65a040d034651
"[{'page_index': 0, 'viewing_time': 14340}]",14340,instructions,0,14341,0.0-0.0,anon_subject_145,659f04805339f753c1b65235,65a0476a9066460e83748fc9,0.8644873986616477,instructions,session-65a047c1a123f
"[{'page_index': 0, 'viewing_time': 15830}]",15831,instructions,0,15835,0.0-0.0,anon_subject_223,659f04805339f753c1b65235,65a05a7215917193ea8a6a91,0.6467911637902726,instructions,session-65a05b06077fb
"[{'page_index': 0, 'viewing_time': 63323}]",63324,instructions,0,63342,0.0-0.0,anon_subject_143,659f04805339f753c1b65235,65a05a7eab05057d2f5b2984,0.46747084098131486,instructions,session-65a05b45ce19b
"[{'page_index': 0, 'viewing_time': 24419}]",24419,instructions,0,24423,0.0-0.0,anon_subject_263,659f04805339f753c1b65235,65a05a895e58d51b4f3e4996,0.5364883509687399,instructions,session-65a05b242a56d
"[{'page_index': 0, 'viewing_time': 15271}]",15273,instructions,0,15279,0.0-0.0,anon_subject_211,659f04805339f753c1b65235,65a047999b6bc005fb6bdf88,0.4735783142253964,instructions,session-65a04878e4015
"[{'page_index': 0, 'viewing_time': 47110}]",47110,instructions,0,47113,0.0-0.0,anon_subject_289,659f04805339f753c1b65235,65a03ee90e6a0108526bdd44,0.4115867495775497,instructions,session-65a04049c6111
"[{'page_index': 0, 'viewing_time': 29215}]",29216,instructions,0,29221,0.0-0.0,anon_subject_152,659f04805339f753c1b65235,65a03f1e6ba14dc8d40a4a56,0.9374795025563682,instructions,session-65a03fc14f761
"[{'page_index': 0, 'viewing_time': 17764}]",17765,instructions,0,17770,0.0-0.0,anon_subject_112,659f04805339f753c1b65235,65a02b703cf0fef29ad2a2f1,0.8018806011650006,instructions,session-65a02bde687c3
"[{'page_index': 0, 'viewing_time': 7082}]",7083,instructions,0,7086,0.0-0.0,anon_subject_205,659f04805339f753c1b65235,65a05c0110105f4dafafb2b5,0.5711494623922899,instructions,session-65a05c54d3666
"[{'page_index': 0, 'viewing_time': 11275}]",11275,instructions,0,11279,0.0-0.0,anon_subject_90,659f04805339f753c1b65235,65a0475c731e49bdea1b9120,0.24396108755305002,instructions,session-65a047f9569f7
"[{'page_index': 0, 'viewing_time': 31401}]",31403,instructions,0,31412,0.0-0.0,anon_subject_109,659f04805339f753c1b65235,65a03fb2184037426b33ff3b,0.7895290688127601,instructions,session-65a040636b16b
"[{'page_index': 0, 'viewing_time': 51828}]",51829,instructions,0,51835,0.0-0.0,anon_subject_74,659f04805339f753c1b65235,65a02995943133561833f98c,0.3310450299104488,instructions,session-65a02a8be0e9c
"[{'page_index': 0, 'viewing_time': 1754}]",1754,instructions,0,1758,0.0-0.0,anon_subject_259,659f04805339f753c1b65235,65a03eb46243e6d43e38417b,0.8235987904453146,instructions,session-65a0420c6db58
"[{'page_index': 0, 'viewing_time': 46415}]",46415,instructions,0,46417,0.0-0.0,anon_subject_84,659f04805339f753c1b65235,65a05b72f34b5631810f8150,0.8472031216002167,instructions,session-65a05c3d32c64
"[{'page_index': 0, 'viewing_time': 6141}]",6141,instructions,0,6143,0.0-0.0,anon_subject_9,659f04805339f753c1b65235,65a047693ac2f375865f4ece,0.708789351023108,instructions,session-65a0481e99094
"[{'page_index': 0, 'viewing_time': 6481}]",6482,instructions,0,6485,0.0-0.0,anon_subject_226,659f04805339f753c1b65235,65a03f0c277118eefd0f3f52,0.025096151108051412,instructions,session-65a03f7a50fce
"[{'page_index': 0, 'viewing_time': 12969}]",12971,instructions,0,12984,0.0-0.0,anon_subject_119,659f04805339f753c1b65235,65a03ecf835c6424ecc7517d,0.2558059281724403,instructions,session-65a03f3be4b82
"[{'page_index': 0, 'viewing_time': 13005}]",13006,instructions,0,13017,0.0-0.0,anon_subject_106,659f04805339f753c1b65235,65a03eb054a913c61d775444,0.7723850737628328,instructions,session-65a03f6958d7a
"[{'page_index': 0, 'viewing_time': 30947}]",30948,instructions,0,30951,0.0-0.0,anon_subject_267,659f04805339f753c1b65235,65a029ee7db586ea67a73956,0.9821607744647937,instructions,session-65a02aeddfe8b
"[{'page_index': 0, 'viewing_time': 44584}]",44584,instructions,0,44586,0.0-0.0,anon_subject_246,659f04805339f753c1b65235,65a05a916e869bf85df4de0b,0.6412144368177903,instructions,session-65a05c067ee90
"[{'page_index': 0, 'viewing_time': 6971}]",6971,instructions,0,6975,0.0-0.0,anon_subject_85,659f04805339f753c1b65235,65a05a7cfcd1e50633ac3a82,0.514869365049188,instructions,session-65a05af758726
"[{'page_index': 0, 'viewing_time': 8737}]",8737,instructions,0,8754,0.0-0.0,anon_subject_103,659f04805339f753c1b65235,65a05a77f34b5631810f80ec,0.8631832628072968,instructions,session-65a05ba5a4b39
"[{'page_index': 0, 'viewing_time': 16216}]",16216,instructions,0,16217,0.0-0.0,anon_subject_4,659f04805339f753c1b65235,65a05a6c6bac4df6251b9481,0.4978530388722371,instructions,session-65a05b3256ccf
"[{'page_index': 0, 'viewing_time': 21536}]",21536,instructions,0,21539,0.0-0.0,anon_subject_77,659f04805339f753c1b65235,65a02a6c5f6b46129434efda,0.6796873871248637,instructions,session-65a02aea6e162
"[{'page_index': 0, 'viewing_time': 21873}]",21873,instructions,0,21876,0.0-0.0,anon_subject_277,659f04805339f753c1b65235,65a05a8d85d169d8295bfc2e,0.6660816993511438,instructions,session-65a05b3fdb663
"[{'page_index': 0, 'viewing_time': 43120}]",43120,instructions,0,43126,0.0-0.0,anon_subject_10,659f04805339f753c1b65235,65a04773bfcc66390994ad3f,0.7574550579166008,instructions,session-65a048486c4aa
"[{'page_index': 0, 'viewing_time': 16064}]",16067,instructions,0,16071,0.0-0.0,anon_subject_11,659f04805339f753c1b65235,65a03f1d6d1220a64a0f3ff4,0.5507684894005975,instructions,session-65a03f8ca85a8
"[{'page_index': 0, 'viewing_time': 10198}]",10199,instructions,0,10202,0.0-0.0,anon_subject_174,659f04805339f753c1b65235,65a04730d96f47480f33e5b0,0.7964797461545801,instructions,session-65a0479d78e5a
"[{'page_index': 0, 'viewing_time': 51679}]",51680,instructions,0,51687,0.0-0.0,anon_subject_265,659f04805339f753c1b65235,65a047ae5aba9e5f885bf764,0.9344200962146372,instructions,session-65a048a77ad72
"[{'page_index': 0, 'viewing_time': 44838}]",44838,instructions,0,44843,0.0-0.0,anon_subject_275,659f04805339f753c1b65235,65a05a755747bb3166d4f5ff,0.7163995266817098,instructions,session-65a05c784b652
"[{'page_index': 0, 'viewing_time': 9793}]",9794,instructions,0,9796,0.0-0.0,anon_subject_32,659f04805339f753c1b65235,65a0479e05a2eebaddf4d4c7,0.8812474157906789,instructions,session-65a048048b86b
"[{'page_index': 0, 'viewing_time': 12916}]",12917,instructions,0,12920,0.0-0.0,anon_subject_27,659f04805339f753c1b65235,65a047459066460e83748fbf,0.7419023631056343,instructions,session-65a047a0b4a8a
"[{'page_index': 0, 'viewing_time': 26168}]",26168,instructions,0,26175,0.0-0.0,anon_subject_233,659f04805339f753c1b65235,65a05b5ee7bb05ef1c8dafd9,0.23575965832589407,instructions,session-65a05c46115e7
"[{'page_index': 0, 'viewing_time': 8115}]",8115,instructions,0,8119,0.0-0.0,anon_subject_12,659f04805339f753c1b65235,65a0471bfbe002ebe6cd92b9,0.3042260510748822,instructions,session-65a047ae1158f
"[{'page_index': 0, 'viewing_time': 16237}]",16238,instructions,0,16244,0.0-0.0,anon_subject_7,659f04805339f753c1b65235,65a027775aba9e5f885bef5b,0.6570270035300274,instructions,session-65a027e97de4e
"[{'page_index': 0, 'viewing_time': 25524}]",25525,instructions,0,25533,0.0-0.0,anon_subject_99,659f04805339f753c1b65235,65a03f1b2086d07cc8439990,0.4012160519488479,instructions,session-65a03f992592a
"[{'page_index': 0, 'viewing_time': 17339}]",17339,instructions,0,17342,0.0-0.0,anon_subject_147,659f04805339f753c1b65235,65a0474b214275fb72e5c476,0.5543104442078839,instructions,session-65a047f7133d3
"[{'page_index': 0, 'viewing_time': 14948}]",14948,instructions,0,14950,0.0-0.0,anon_subject_80,659f04805339f753c1b65235,65a047592a197f9cd83e42bd,0.2088060979110371,instructions,session-65a0480195874
"[{'page_index': 0, 'viewing_time': 24378}]",24379,instructions,0,24387,0.0-0.0,anon_subject_232,659f04805339f753c1b65235,65a03f2e10105f4dafafac4e,0.060988430879561406,instructions,session-65a040d028e4f
"[{'page_index': 0, 'viewing_time': 12307}]",12307,instructions,0,12310,0.0-0.0,anon_subject_130,659f04805339f753c1b65235,65a05a8d3e71fc9f72cd986b,0.03878543209658214,instructions,session-65a05b3f16bec
"[{'page_index': 0, 'viewing_time': 47889}]",47889,instructions,0,47902,0.0-0.0,anon_subject_206,659f04805339f753c1b65235,65a05a7915917193ea8a6a97,0.4894952541752151,instructions,session-65a05b99b101a
"[{'page_index': 0, 'viewing_time': 302565}]",302566,instructions,0,302570,0.0-0.0,anon_subject_72,659f04805339f753c1b65235,65a05bcdf51e8f6fd7a748ab,0.1638616917487805,instructions,session-65a06045248d1
"[{'page_index': 0, 'viewing_time': 23280}]",23280,instructions,0,23283,0.0-0.0,anon_subject_64,659f04805339f753c1b65235,65a03f1d2526f0c2765ca3b5,0.8413572211385306,instructions,session-65a03fbe0b18d
"[{'page_index': 0, 'viewing_time': 22300}]",22300,instructions,0,22303,0.0-0.0,anon_subject_87,659f04805339f753c1b65235,65a05a63bdc3fb4b929b336a,0.7899975963684935,instructions,session-65a05ae8ce414
"[{'page_index': 0, 'viewing_time': 9550}]",9550,instructions,0,9560,0.0-0.0,anon_subject_189,659f04805339f753c1b65235,65a03f6e54a913c61d77546c,0.19647620085082806,instructions,session-65a03fd4d2dd9
"[{'page_index': 0, 'viewing_time': 9983}]",9983,instructions,0,9984,0.0-0.0,anon_subject_76,659f04805339f753c1b65235,65a05a8a158e1166c55f53da,0.8370301479934656,instructions,session-65a05af41e709
"[{'page_index': 0, 'viewing_time': 19251}]",19252,instructions,0,19260,0.0-0.0,anon_subject_6,659f04805339f753c1b65235,65a0479f51ab53c1d1265a74,0.16846880399320896,instructions,session-65a0483c77ac6
"[{'page_index': 0, 'viewing_time': 119469}]",119472,instructions,0,119486,0.0-0.0,anon_subject_78,659f04805339f753c1b65235,65a05cb02c73291ebb384a81,0.35517556858883803,instructions,session-65a05ef3dc596
"[{'page_index': 0, 'viewing_time': 33747}]",33747,instructions,0,33752,0.0-0.0,anon_subject_16,659f04805339f753c1b65235,65a0479885d169d8295bf77b,0.6339271940314204,instructions,session-65a0482121c69
"[{'page_index': 0, 'viewing_time': 11516}]",11516,instructions,0,11519,0.0-0.0,anon_subject_293,659f04805339f753c1b65235,65a04746958dc9b1a7f39989,0.6364248336413934,instructions,session-65a047e1d1c42
"[{'page_index': 0, 'viewing_time': 17281}]",17281,instructions,0,17297,0.0-0.0,anon_subject_117,659f04805339f753c1b65235,65a02b758acfe7a551555843,0.8855515402511998,instructions,session-65a02c583f6e8
"[{'page_index': 0, 'viewing_time': 50867}]",50868,instructions,0,50870,0.0-0.0,anon_subject_198,659f04805339f753c1b65235,65a05a5f15177d3861dbebf3,0.032399229057037404,instructions,session-65a05ba835d80
"[{'page_index': 0, 'viewing_time': 6535}]",6535,instructions,0,6541,0.0-0.0,anon_subject_116,659f04805339f753c1b65235,65a03fb19db8b5fc2316f5e1,0.7200441704806846,instructions,session-65a040445e7f7
"[{'page_index': 0, 'viewing_time': 6659}]",6660,instructions,0,6675,0.0-0.0,anon_subject_154,659f04805339f753c1b65235,65a03f5603787e97c70f7a5f,0.1272952742615565,instructions,session-65a040636a6db
"[{'page_index': 0, 'viewing_time': 16094}]",16095,instructions,0,16100,0.0-0.0,anon_subject_139,659f04805339f753c1b65235,65a05a85919a51b27c952d7a,0.658398265916212,instructions,session-65a05b07b6540
"[{'page_index': 0, 'viewing_time': 12124}]",12125,instructions,0,12133,0.0-0.0,anon_subject_168,659f04805339f753c1b65235,65a03f25731e49bdea1b8eb1,0.1714630743906731,instructions,session-65a03f955ba29
"[{'page_index': 0, 'viewing_time': 16118}]",16118,instructions,0,16121,0.0-0.0,anon_subject_241,659f04805339f753c1b65235,65a047af5e58d51b4f3e4531,0.2194898071148006,instructions,session-65a0482f594e2
"[{'page_index': 0, 'viewing_time': 4258}]",4258,instructions,0,4262,0.0-0.0,anon_subject_44,659f04805339f753c1b65235,65a04782125306e4f071fe40,0.5024601190993161,instructions,session-65a047ea8c7b4
"[{'page_index': 0, 'viewing_time': 24474}]",24475,instructions,0,24478,0.0-0.0,anon_subject_105,659f04805339f753c1b65235,65a024a7c92318ddab4a8d04,0.5743457981427009,instructions,session-65a02606b7439
"[{'page_index': 0, 'viewing_time': 5937}]",5937,instructions,0,5941,0.0-0.0,anon_subject_93,659f04805339f753c1b65235,65a04ae6125306e4f071fef8,0.7337377035746249,instructions,session-65a04b957dc6f
"[{'page_index': 0, 'viewing_time': 13523}]",13523,instructions,0,13525,0.0-0.0,anon_subject_136,659f04805339f753c1b65235,65a03f3fe7bb05ef1c8da8ca,0.15033325141771403,instructions,session-65a03f9da5ce2
"[{'page_index': 0, 'viewing_time': 9001}]",9002,instructions,0,9014,0.0-0.0,anon_subject_261,659f04805339f753c1b65235,65a047715d139c5780748ff9,0.7077803464776335,instructions,session-65a047c1bc28a
"[{'page_index': 0, 'viewing_time': 9668}]",9671,instructions,0,9690,0.0-0.0,anon_subject_49,659f04805339f753c1b65235,65a05a7bb11a9bdf067759f4,0.12557480615522665,instructions,session-65a05b1ca7bad
"[{'page_index': 0, 'viewing_time': 12362}]",12362,instructions,0,12368,0.0-0.0,anon_subject_113,659f04805339f753c1b65235,65a05a72fc7c4acd585d662d,0.017841017663752234,instructions,session-65a05b420a1fa
"[{'page_index': 0, 'viewing_time': 17300}]",17301,instructions,0,17310,0.0-0.0,anon_subject_52,659f04805339f753c1b65235,65a02a816243e6d43e383d37,0.26497513126614836,instructions,session-65a02b571c787
"[{'page_index': 0, 'viewing_time': 419085}]",419085,instructions,0,419086,0.0-0.0,anon_subject_235,659f04805339f753c1b65235,65a047946d1220a64a0f41a6,0.3730065067076823,instructions,session-65a04b0f5ec6b
"[{'page_index': 0, 'viewing_time': 19441}]",19442,instructions,0,19448,0.0-0.0,anon_subject_264,659f04805339f753c1b65235,65a03f289b6bc005fb6bdd7d,0.2458746283398443,instructions,session-65a03fd28589c
"[{'page_index': 0, 'viewing_time': 19142}]",19142,instructions,0,19145,0.0-0.0,anon_subject_141,659f04805339f753c1b65235,65a04769975ac8e822b375b2,0.10730645967242514,instructions,session-65a0482e20da7
"[{'page_index': 0, 'viewing_time': 10103}]",10103,instructions,0,10106,0.0-0.0,anon_subject_190,659f04805339f753c1b65235,65a05c965d139c57807494a1,0.01367335181736351,instructions,session-65a05d7b42d4a
"[{'page_index': 0, 'viewing_time': 10260}]",10261,instructions,0,10275,0.0-0.0,anon_subject_242,659f04805339f753c1b65235,65a0474130a5ced3f5c44fca,0.03345420482642636,instructions,session-65a048008ac7d
"[{'page_index': 0, 'viewing_time': 731956}]",731959,instructions,0,731961,0.0-0.0,anon_subject_209,659f04805339f753c1b65235,65a05a713f91fc3cf7f39ca6,0.6305889994092155,instructions,session-65a05dd941c45
"[{'page_index': 0, 'viewing_time': 29247}]",29247,instructions,0,29250,0.0-0.0,anon_subject_31,659f04805339f753c1b65235,65a02abf7b9063ef91411d9e,0.6912217385606416,instructions,session-65a02c12618ed
"[{'page_index': 0, 'viewing_time': 12632}]",12633,instructions,0,12638,0.0-0.0,anon_subject_278,659f04805339f753c1b65235,65a05ca8c9e1a662cc1f67cf,0.026706667397647488,instructions,session-65a05d34f18cc
"[{'page_index': 0, 'viewing_time': 20567}]",20567,instructions,0,20581,0.0-0.0,anon_subject_281,659f04805339f753c1b65235,65a05a8239341d75b93cfd3c,0.8890390842388958,instructions,session-65a05b3dbf6e2
"[{'page_index': 0, 'viewing_time': 16782}]",16782,instructions,0,16785,0.0-0.0,anon_subject_194,659f04805339f753c1b65235,65a04795fe51d8b6cef36a06,0.3603332391324071,instructions,session-65a0481d18893
"[{'page_index': 0, 'viewing_time': 6111}]",6111,instructions,0,6115,0.0-0.0,anon_subject_256,659f04805339f753c1b65235,65a0472ab11a9bdf0677551b,0.06766187323333273,instructions,session-65a048fa7df12
"[{'page_index': 0, 'viewing_time': 5581}]",5581,instructions,0,5585,0.0-0.0,anon_subject_218,659f04805339f753c1b65235,65a0473104c0c720ac5ca4ef,0.017088213941740316,instructions,session-65a047b55cf32
"[{'page_index': 0, 'viewing_time': 510647}]",510648,instructions,0,510653,0.0-0.0,anon_subject_253,659f04805339f753c1b65235,65a05d1f3e71fc9f72cd994e,0.678642556070659,instructions,session-65a05fed82019
"[{'page_index': 0, 'viewing_time': 33294}]",33296,instructions,0,33306,0.0-0.0,anon_subject_171,659f04805339f753c1b65235,65a03f5539341d75b93cf6c7,0.9932319703116781,instructions,session-65a040653ec0f
"[{'page_index': 0, 'viewing_time': 10123}]",10123,instructions,0,10126,0.0-0.0,anon_subject_163,659f04805339f753c1b65235,65a04753fc35e12f32bde2d3,0.15639593185298595,instructions,session-65a047c729d9f
"[{'page_index': 0, 'viewing_time': 16022}]",16022,instructions,0,16026,0.0-0.0,anon_subject_114,659f04805339f753c1b65235,65a047146bac4df6251b8fc1,0.9774638490997802,instructions,session-65a047912c169
"[{'page_index': 0, 'viewing_time': 47976}]",47978,instructions,0,48018,0.0-0.0,anon_subject_120,659f04805339f753c1b65235,65a03f49e6891ded9ae078f3,0.938757886610172,instructions,session-65a03fffbac72
"[{'page_index': 0, 'viewing_time': 13082}]",13082,instructions,0,13086,0.0-0.0,anon_subject_160,659f04805339f753c1b65235,65a04766461451c85ed4f448,0.12272541383576141,instructions,session-65a0480a3ecdf
"[{'page_index': 0, 'viewing_time': 32394}]",32394,instructions,0,32397,0.0-0.0,anon_subject_180,659f04805339f753c1b65235,65a05b982c73291ebb384a49,0.3944721842127905,instructions,session-65a05ddd1ec2f
"[{'page_index': 0, 'viewing_time': 34095}]",34096,instructions,0,34099,0.0-0.0,anon_subject_88,659f04805339f753c1b65235,65a05a8e277118eefd0f4627,0.3257964881443767,instructions,session-65a05b8c7a9bf
"[{'page_index': 0, 'viewing_time': 8275}]",8275,instructions,0,8278,0.0-0.0,anon_subject_238,659f04805339f753c1b65235,65a0474a6451f41271c33090,0.18570924259063948,instructions,session-65a047a1d67c5
"[{'page_index': 0, 'viewing_time': 15829}]",15830,instructions,0,15838,0.0-0.0,anon_subject_179,659f04805339f753c1b65235,65a05a82e0a30daee58a6de3,0.7013822465798254,instructions,session-65a05b54f0320
"[{'page_index': 0, 'viewing_time': 15537}]",15538,instructions,0,15543,0.0-0.0,anon_subject_54,659f04805339f753c1b65235,65a048432a197f9cd83e4309,0.7230288644411063,instructions,session-65a048d54b0cb
"[{'page_index': 0, 'viewing_time': 56335}]",56336,instructions,0,56341,0.0-0.0,anon_subject_45,659f04805339f753c1b65235,65a03f822fb72900ba26554e,0.17161122431440168,instructions,session-65a0402dec6dd
"[{'page_index': 0, 'viewing_time': 23231}]",23234,instructions,0,23250,0.0-0.0,anon_subject_207,659f04805339f753c1b65235,65a03ebc2fb72900ba265521,0.1384644279547682,instructions,session-65a03f5bb5c55
"[{'page_index': 0, 'viewing_time': 11620}]",11620,instructions,0,11622,0.0-0.0,anon_subject_167,659f04805339f753c1b65235,65a0472d958dc9b1a7f39985,0.0759738127939864,instructions,session-65a047c619722
"[{'page_index': 0, 'viewing_time': 8797}]",8798,instructions,0,8802,0.0-0.0,anon_subject_266,659f04805339f753c1b65235,65a0257d591c52695cdbe046,0.05153068693263907,instructions,session-65a025e041e9b
"[{'page_index': 0, 'viewing_time': 9360}]",9360,instructions,0,9365,0.0-0.0,anon_subject_55,659f04805339f753c1b65235,65a047ab4720b6d4848fd62c,0.8300249422159358,instructions,session-65a04880b87da
"[{'page_index': 0, 'viewing_time': 5795}]",5796,instructions,0,5797,0.0-0.0,anon_subject_221,659f04805339f753c1b65235,65a047085068c51fec46d7e8,0.09009117329510219,instructions,session-65a049244b3f9
"[{'page_index': 0, 'viewing_time': 2065}]",2065,instructions,0,2083,0.0-0.0,anon_subject_150,659f04805339f753c1b65235,65a05a6f6616b428b1412c29,0.7749787625843192,instructions,session-65a05ada8a5a0
"[{'page_index': 0, 'viewing_time': 14377}]",14378,instructions,0,14381,0.0-0.0,anon_subject_252,659f04805339f753c1b65235,65a04772318f24d898a60b6f,0.5724190430326754,instructions,session-65a04820afc22
"[{'page_index': 0, 'viewing_time': 10016}]",10017,instructions,0,10028,0.0-0.0,anon_subject_197,659f04805339f753c1b65235,65a0472ae1f78d9853e38f75,0.5893754308536094,instructions,session-65a0478f5a60e
"[{'page_index': 0, 'viewing_time': 42127}]",42127,instructions,0,42136,0.0-0.0,anon_subject_71,659f04805339f753c1b65235,65a04874dc0d74b929e38c63,0.030408508982043614,instructions,session-65a04929a442a
"[{'page_index': 0, 'viewing_time': 1418}]",1419,instructions,0,1436,0.0-0.0,anon_subject_35,659f04805339f753c1b65235,65a05a726e869bf85df4de03,0.18819349818917352,instructions,session-65a05bba92998
"[{'page_index': 0, 'viewing_time': 29891}]",29891,instructions,0,29896,0.0-0.0,anon_subject_165,659f04805339f753c1b65235,65a02b82b11a9bdf06774e9c,0.4578861962008951,instructions,session-65a02cacdf987
"[{'page_index': 0, 'viewing_time': 8183}]",8184,instructions,0,8192,0.0-0.0,anon_subject_124,659f04805339f753c1b65235,65a05a7dd15130d9d4b37b5a,0.25178844572599135,instructions,session-65a05b1a10c72
"[{'page_index': 0, 'viewing_time': 12591}]",12592,instructions,0,12596,0.0-0.0,anon_subject_83,659f04805339f753c1b65235,65a03e983769279b830a4bb2,0.9203480672680291,instructions,session-65a03ef76d39c
"[{'page_index': 0, 'viewing_time': 51350}]",51350,instructions,0,51351,0.0-0.0,anon_subject_53,659f04805339f753c1b65235,65a03f2b0f99dc411697c39c,0.033512744339336153,instructions,session-65a03ffa70226
"[{'page_index': 0, 'viewing_time': 1012}]",1013,instructions,0,1017,0.0-0.0,anon_subject_81,659f04805339f753c1b65235,65a03f1cbdb9a99a2e4f3d1f,0.9716174962139885,instructions,session-65a03fe145419
"[{'page_index': 0, 'viewing_time': 3616}]",3616,instructions,0,3622,0.0-0.0,anon_subject_239,659f04805339f753c1b65235,65a05b0ae1f78d9853e3950e,0.5562027715333759,instructions,session-65a05b8948465
"[{'page_index': 0, 'viewing_time': 46892}]",46894,instructions,0,46904,0.0-0.0,anon_subject_15,659f04805339f753c1b65235,65a05a838320fc7c6257b176,0.0742803095064215,instructions,session-65a05e49a7061
"[{'page_index': 0, 'viewing_time': 4877}]",4877,instructions,0,4879,0.0-0.0,anon_subject_199,659f04805339f753c1b65235,65a05a76ab05057d2f5b297a,0.858401561544712,instructions,session-65a05aea25545
"[{'page_index': 0, 'viewing_time': 37468}]",37468,instructions,0,37471,0.0-0.0,anon_subject_60,659f04805339f753c1b65235,65a05a9110105f4dafafb266,0.5324648497629871,instructions,session-65a05b52413e4
"[{'page_index': 0, 'viewing_time': 11977}]",11978,instructions,0,11984,0.0-0.0,anon_subject_79,659f04805339f753c1b65235,65a047970e6a0108526bdee0,0.3575557730812433,instructions,session-65a04803caf33
"[{'page_index': 0, 'viewing_time': 25985}]",25985,instructions,0,25988,0.0-0.0,anon_subject_292,659f04805339f753c1b65235,65a05ca0fc35e12f32bde7aa,0.7632217748086811,instructions,session-65a05d3f6cfd5
"[{'page_index': 0, 'viewing_time': 16774}]",16777,instructions,0,16821,0.0-0.0,anon_subject_155,659f04805339f753c1b65235,65a024201d9b385e9c5ff534,0.6278779518396189,instructions,session-65a024a610277
"[{'page_index': 0, 'viewing_time': 13380}]",13380,instructions,0,13398,0.0-0.0,anon_subject_268,659f04805339f753c1b65235,65a05b00591c52695cdbed67,0.751689602321034,instructions,session-65a05b8f25dba
"[{'page_index': 0, 'viewing_time': 8816}]",8816,instructions,0,8817,0.0-0.0,anon_subject_5,659f04805339f753c1b65235,65a04717461451c85ed4f435,0.11894077212290377,instructions,session-65a0476edb6ab
"[{'page_index': 0, 'viewing_time': 11000}]",11001,instructions,0,11004,0.0-0.0,anon_subject_247,659f04805339f753c1b65235,65a03ef8dc0d74b929e38ab0,0.39760352171414026,instructions,session-65a03f754d3b4
"[{'page_index': 0, 'viewing_time': 15160}]",15160,instructions,0,15164,0.0-0.0,anon_subject_200,659f04805339f753c1b65235,65a03effce8132962971fd6f,0.3567105562292955,instructions,session-65a03fa711a52
"[{'page_index': 0, 'viewing_time': 875}]",875,instructions,0,879,0.0-0.0,anon_subject_50,659f04805339f753c1b65235,65a047756616b428b14127bd,0.6090204255975686,instructions,session-65a047e95ff31
"[{'page_index': 0, 'viewing_time': 16883}]",16883,instructions,0,16890,0.0-0.0,anon_subject_127,659f04805339f753c1b65235,65a05a78e7bb05ef1c8daf8a,0.9713746656165332,instructions,session-65a05b0c20ace
"[{'page_index': 0, 'viewing_time': 7549}]",7550,instructions,0,7562,0.0-0.0,anon_subject_170,659f04805339f753c1b65235,65a03f643f91fc3cf7f39646,0.32051229274893367,instructions,session-65a03ffa9c274
"[{'page_index': 0, 'viewing_time': 24459}]",24461,instructions,0,24496,0.0-0.0,anon_subject_98,659f04805339f753c1b65235,65a02a93f51e8f6fd7a73b63,0.2940401956972942,instructions,session-65a02b51cb690
"[{'page_index': 0, 'viewing_time': 30025}]",30026,instructions,0,30030,0.0-0.0,anon_subject_229,659f04805339f753c1b65235,65a05ae007de5e75355b287c,0.8922053790283111,instructions,session-65a05bb1a04b6
"[{'page_index': 0, 'viewing_time': 9541}]",9542,instructions,0,9548,0.0-0.0,anon_subject_186,659f04805339f753c1b65235,65a03f841d9b385e9c5ffcaf,0.18671391484020416,instructions,session-65a0400d8a7a9
"[{'page_index': 0, 'viewing_time': 11833}]",11833,instructions,0,11836,0.0-0.0,anon_subject_46,659f04805339f753c1b65235,65a0478cbdb9a99a2e4f3ea0,0.6224157413950246,instructions,session-65a048ac96d18
"[{'page_index': 0, 'viewing_time': 10564}]",10565,instructions,0,10567,0.0-0.0,anon_subject_288,659f04805339f753c1b65235,65a05a755e58d51b4f3e4994,0.23330471641120143,instructions,session-65a05af08038f
"[{'page_index': 0, 'viewing_time': 15827}]",15828,instructions,0,15831,0.0-0.0,anon_subject_231,659f04805339f753c1b65235,65a05b02ee5c94479846dbb7,0.9389177380067755,instructions,session-65a05e1c11c14
"[{'page_index': 0, 'viewing_time': 10449}]",10449,instructions,0,10452,0.0-0.0,anon_subject_214,659f04805339f753c1b65235,65a048175d139c5780749015,0.6544557812460228,instructions,session-65a0487804e80
"[{'page_index': 0, 'viewing_time': 7004}]",7005,instructions,0,7007,0.0-0.0,anon_subject_191,659f04805339f753c1b65235,65a05ad70198a4a3951f6724,0.24936859162458447,instructions,session-65a05c741a0a0
"[{'page_index': 0, 'viewing_time': 11097}]",11098,instructions,0,11102,0.0-0.0,anon_subject_188,659f04805339f753c1b65235,65a047166af24254f25d624b,0.3535721332259063,instructions,session-65a04780efcc3
"[{'page_index': 0, 'viewing_time': 11128}]",11128,instructions,0,11131,0.0-0.0,anon_subject_121,659f04805339f753c1b65235,65a0481bba9f28bc37c44d6e,0.3574182145019795,instructions,session-65a048b3d74c1
"[{'page_index': 0, 'viewing_time': 9377}]",9377,instructions,0,9393,0.0-0.0,anon_subject_185,659f04805339f753c1b65235,65a05a80ee5c94479846db95,0.7212377113972923,instructions,session-65a05b36f24cf
"[{'page_index': 0, 'viewing_time': 15450}]",15450,instructions,0,15454,0.0-0.0,anon_subject_67,659f04805339f753c1b65235,65a05a5bcb1340048e210a99,0.0050832092129033946,instructions,session-65a05af78d67e
"[{'page_index': 0, 'viewing_time': 22851}]",22851,instructions,0,22857,0.0-0.0,anon_subject_41,659f04805339f753c1b65235,65a05a83731e49bdea1b9610,0.9344356490744588,instructions,session-65a05b0e04425
"[{'page_index': 0, 'viewing_time': 13434}]",13434,instructions,0,13438,0.0-0.0,anon_subject_14,659f04805339f753c1b65235,65a0481ae6891ded9ae07aa6,0.19901813731265516,instructions,session-65a04890d8cac
"[{'page_index': 0, 'viewing_time': 22062}]",22063,instructions,0,22065,0.0-0.0,anon_subject_240,659f04805339f753c1b65235,65a047930f99dc411697c564,0.4498940111636538,instructions,session-65a04833b7e26
"[{'page_index': 0, 'viewing_time': 17676}]",17676,instructions,0,17682,0.0-0.0,anon_subject_178,659f04805339f753c1b65235,65a04753d046c4fd2b9050e7,0.6131689394647788,instructions,session-65a047d7ad3c6
"[{'page_index': 0, 'viewing_time': 53061}]",53062,instructions,0,53081,0.0-0.0,anon_subject_8,659f04805339f753c1b65235,65a03f4b2fb72900ba265539,0.693294017740814,instructions,session-65a04007d01d4
"[{'page_index': 0, 'viewing_time': 29020}]",29020,instructions,0,29021,0.0-0.0,anon_subject_255,659f04805339f753c1b65235,65a05a556451f41271c335a3,0.04135264080246903,instructions,session-65a05af305311
"[{'page_index': 0, 'viewing_time': 33165}]",33166,instructions,0,33174,0.0-0.0,anon_subject_219,659f04805339f753c1b65235,65a05a7f0e6a0108526be3f3,0.32594609042892064,instructions,session-65a05b30c6618
"[{'page_index': 0, 'viewing_time': 39680}]",39682,instructions,0,39702,0.0-0.0,anon_subject_123,659f04805339f753c1b65235,65a05a7be0a30daee58a6ddf,0.5271273715300286,instructions,session-65a05c30728b1
"[{'page_index': 0, 'viewing_time': 10437}]",10438,instructions,0,10442,0.0-0.0,anon_subject_243,659f04805339f753c1b65235,65a05a77c799135a5fbde5c9,0.3432732016889044,instructions,session-65a05aff05676
"[{'page_index': 0, 'viewing_time': 38522}]",38522,instructions,0,38526,0.0-0.0,anon_subject_125,659f04805339f753c1b65235,65a047a1214275fb72e5c48d,0.20499888218495,instructions,session-65a04876ae4c5
"[{'page_index': 0, 'viewing_time': 10096}]",10097,instructions,0,10101,0.0-0.0,anon_subject_134,659f04805339f753c1b65235,65a0480b587aebae10afac85,0.6541333759947272,instructions,session-65a0486ba2428
"[{'page_index': 0, 'viewing_time': 20823}]",20823,instructions,0,20827,0.0-0.0,anon_subject_95,659f04805339f753c1b65235,65a03f4e3769279b830a4bcf,0.19239755949945425,instructions,session-65a03fc7e7bc0
"[{'page_index': 0, 'viewing_time': 36794}]",36794,instructions,0,36795,0.0-0.0,anon_subject_151,659f04805339f753c1b65235,65a05a843cf0fef29ad2aeba,0.7961975160205049,instructions,session-65a05c96500a3
"[{'page_index': 0, 'viewing_time': 25371}]",25371,instructions,0,25375,0.0-0.0,anon_subject_249,659f04805339f753c1b65235,65a0478e6ffb1e2a7c439d59,0.12619914396633192,instructions,session-65a0487022b32
"[{'page_index': 0, 'viewing_time': 19133}]",19133,instructions,0,19143,0.0-0.0,anon_subject_287,659f04805339f753c1b65235,65a05a7b97cef2e56e5ff019,0.4916120020231023,instructions,session-65a05b4493325
"[{'page_index': 0, 'viewing_time': 23845}]",23845,instructions,0,23846,0.0-0.0,anon_subject_215,659f04805339f753c1b65235,65a04829dc0d74b929e38c57,0.8846510997973395,instructions,session-65a048c6dd491
"[{'page_index': 0, 'viewing_time': 925}]",926,instructions,0,928,0.0-0.0,anon_subject_166,659f04805339f753c1b65235,65a05a8515917193ea8a6a9c,0.48598553831394575,instructions,session-65a05c8fe1fc8
"[{'page_index': 0, 'viewing_time': 13015}]",13016,instructions,0,13021,0.0-0.0,anon_subject_291,659f04805339f753c1b65235,65a05a666ffb1e2a7c43a1eb,0.21703908247595738,instructions,session-65a05ac7a3883
"[{'page_index': 0, 'viewing_time': 16474}]",16474,instructions,0,16478,0.0-0.0,anon_subject_66,659f04805339f753c1b65235,65a047756451f41271c33099,0.6377392893134102,instructions,session-65a047f70913d
"[{'page_index': 0, 'viewing_time': 14516}]",14516,instructions,0,14521,0.0-0.0,anon_subject_110,659f04805339f753c1b65235,65a03fe08acfe7a551555d3e,0.7161891537004954,instructions,session-65a0405c27bf4
"[{'page_index': 0, 'viewing_time': 39248}]",39252,instructions,0,39273,0.0-0.0,anon_subject_295,659f04805339f753c1b65235,65a03f045aba9e5f885bf572,0.8202277259788016,instructions,session-65a040ffaafc5
"[{'page_index': 0, 'viewing_time': 31200}]",31200,instructions,0,31208,0.0-0.0,anon_subject_202,659f04805339f753c1b65235,65a02b99df665e0bdfac3128,0.016019391432744223,instructions,session-65a02c7fc6013
"[{'page_index': 0, 'viewing_time': 10142}]",10143,instructions,0,10144,0.0-0.0,anon_subject_196,659f04805339f753c1b65235,65a05a8c39341d75b93cfd46,0.9473081463998588,instructions,session-65a05b07a6c26
"[{'page_index': 0, 'viewing_time': 20486}]",20486,instructions,0,20489,0.0-0.0,anon_subject_104,659f04805339f753c1b65235,65a03ef5f34b5631810f7ae4,0.548682916580637,instructions,session-65a03fa3076bc
"[{'page_index': 0, 'viewing_time': 10815}]",10816,instructions,0,10824,0.0-0.0,anon_subject_216,659f04805339f753c1b65235,65a0476f85d169d8295bf773,0.7357667372587795,instructions,session-65a047d96efde
"[{'page_index': 0, 'viewing_time': 18413}]",18413,instructions,0,18418,0.0-0.0,anon_subject_138,659f04805339f753c1b65235,65a0478df60c89cb8720388d,0.5428031548823611,instructions,session-65a0480246653
"[{'page_index': 0, 'viewing_time': 37084}]",37084,instructions,0,37088,0.0-0.0,anon_subject_225,659f04805339f753c1b65235,65a047877db586ea67a73fb1,0.17007485020239343,instructions,session-65a0483f4bb94
"[{'page_index': 0, 'viewing_time': 15780}]",15781,instructions,0,15785,0.0-0.0,anon_subject_37,659f04805339f753c1b65235,65a03f663cf0fef29ad2a842,0.19332914033064696,instructions,session-65a03fedeae52
"[{'page_index': 0, 'viewing_time': 17508}]",17508,instructions,0,17512,0.0-0.0,anon_subject_102,659f04805339f753c1b65235,65a047439066460e83748fbc,0.676353038354673,instructions,session-65a047bb02656
"[{'page_index': 0, 'viewing_time': 99793}]",99794,instructions,0,99798,0.0-0.0,anon_subject_294,659f04805339f753c1b65235,65a03efd7f819f0a85932c99,0.4926722633095306,instructions,session-65a03ff957d4e
"[{'page_index': 0, 'viewing_time': 33774}]",33775,instructions,0,33784,0.0-0.0,anon_subject_97,659f04805339f753c1b65235,65a03f618df63a282e2103df,0.7535972838720045,instructions,session-65a0404e65a69
"[{'page_index': 0, 'viewing_time': 6166}]",6167,instructions,0,6171,0.0-0.0,anon_subject_140,659f04805339f753c1b65235,65a03ed27981ab69f5c32d3b,0.4947655554378607,instructions,session-65a03f798069e
"[{'page_index': 0, 'viewing_time': 10576}]",10577,instructions,0,10580,0.0-0.0,anon_subject_212,659f04805339f753c1b65235,65a03eeceeee5416c5400edb,0.45971389060121237,instructions,session-65a03f84d860c
"[{'page_index': 0, 'viewing_time': 14901}]",14901,instructions,0,14907,0.0-0.0,anon_subject_89,659f04805339f753c1b65235,65a03f876ffb1e2a7c439b98,0.5917389509383688,instructions,session-65a040091a7e0
"[{'page_index': 0, 'viewing_time': 15634}]",15634,instructions,0,15638,0.0-0.0,anon_subject_59,659f04805339f753c1b65235,65a05a8a587aebae10afb10c,0.2789340819513817,instructions,session-65a05b608e0de
"[{'page_index': 0, 'viewing_time': 24841}]",24841,instructions,0,24844,0.0-0.0,anon_subject_22,659f04805339f753c1b65235,65a05a865d139c5780749420,0.13103631860394138,instructions,session-65a05b5c4e315
"[{'page_index': 0, 'viewing_time': 34215}]",34215,instructions,0,34227,0.0-0.0,anon_subject_161,659f04805339f753c1b65235,65a03e9c8acfe7a551555ccf,0.43043810062398635,instructions,session-65a03f624c530
"[{'page_index': 0, 'viewing_time': 13827}]",13828,instructions,0,13831,0.0-0.0,anon_subject_213,659f04805339f753c1b65235,65a0475e6e869bf85df4d84f,0.29345326806972105,instructions,session-65a048034fe5f
"[{'page_index': 0, 'viewing_time': 16856}]",16857,instructions,0,16860,0.0-0.0,anon_subject_82,659f04805339f753c1b65235,65a047860e6a0108526bded6,0.14104643866491684,instructions,session-65a0480321c8f
"[{'page_index': 0, 'viewing_time': 23152}]",23152,instructions,0,23153,0.0-0.0,anon_subject_210,659f04805339f753c1b65235,65a05a733ac2f375865f5303,0.3038544448695617,instructions,session-65a05b04a4f41
"[{'page_index': 0, 'viewing_time': 29428}]",29428,instructions,0,29431,0.0-0.0,anon_subject_61,659f04805339f753c1b65235,65a047761d9b385e9c5ffe7c,0.8393668795254248,instructions,session-65a0484c497ce
"[{'page_index': 0, 'viewing_time': 18350}]",18350,instructions,0,18352,0.0-0.0,anon_subject_56,659f04805339f753c1b65235,65a05a8a6451f41271c335b3,0.32652792631992744,instructions,session-65a05aeae845a
"[{'page_index': 0, 'viewing_time': 16621}]",16622,instructions,0,16635,0.0-0.0,anon_subject_257,659f04805339f753c1b65235,65a0471a591c52695cdbe8a9,0.2096322973397371,instructions,session-65a047ae94c9d
"[{'page_index': 0, 'viewing_time': 37416}]",37417,instructions,0,37429,0.0-0.0,anon_subject_92,659f04805339f753c1b65235,65a0475254a913c61d775644,0.6024728632331198,instructions,session-65a047d26a3eb
"[{'page_index': 0, 'viewing_time': 11109}]",11110,instructions,0,11115,0.0-0.0,anon_subject_21,659f04805339f753c1b65235,65a0476be7bb05ef1c8daa8f,0.9285172744524561,instructions,session-65a047fe4e782
"[{'page_index': 0, 'viewing_time': 2020}]",2020,instructions,0,2024,0.0-0.0,anon_subject_269,659f04805339f753c1b65235,65a047a530f6e0140ae07e18,0.9716317915813271,instructions,session-65a04856cf0c0
"[{'page_index': 0, 'viewing_time': 18471}]",18471,instructions,0,18474,0.0-0.0,anon_subject_1,659f04805339f753c1b65235,65a0477d6d1220a64a0f419e,0.07764599261030303,instructions,session-65a04836ee0a3
"[{'page_index': 0, 'viewing_time': 25750}]",25750,instructions,0,25753,0.0-0.0,anon_subject_17,659f04805339f753c1b65235,65a05a8bf6ae756dfe33e958,0.9061938860009009,instructions,session-65a05b1bee90b
"[{'page_index': 0, 'viewing_time': 60408}]",60408,instructions,0,60411,0.0-0.0,anon_subject_142,659f04805339f753c1b65235,65a03f88d046c4fd2b904f2d,0.18068458197456883,instructions,session-65a04091aaee5
"[{'page_index': 0, 'viewing_time': 15147}]",15147,instructions,0,15150,0.0-0.0,anon_subject_29,659f04805339f753c1b65235,65a05a6d15917193ea8a6a8f,0.16211251786157743,instructions,session-65a05af4117c1
"[{'page_index': 0, 'viewing_time': 13352}]",13353,instructions,0,13361,0.0-0.0,anon_subject_63,659f04805339f753c1b65235,65a047406af24254f25d6263,0.9198673525762547,instructions,session-65a047b6c8d5c
"[{'page_index': 0, 'viewing_time': 22662}]",22662,instructions,0,22664,0.0-0.0,anon_subject_284,659f04805339f753c1b65235,65a02b6bcf2ed81aa216f0ca,0.8011214510009381,instructions,session-65a02c8c74dd5
"[{'page_index': 0, 'viewing_time': 9345}]",9345,instructions,0,9351,0.0-0.0,anon_subject_237,659f04805339f753c1b65235,65a02b038acfe7a5515557f8,0.7673643802815875,instructions,session-65a02b93ac387
"[{'page_index': 0, 'viewing_time': 13997}]",13998,instructions,0,14006,0.0-0.0,anon_subject_131,659f04805339f753c1b65235,65a03f689066460e83748dda,0.055097621761941884,instructions,session-65a0401b200a5
"[{'page_index': 0, 'viewing_time': 19728}]",19729,instructions,0,19730,0.0-0.0,anon_subject_19,659f04805339f753c1b65235,65a05a5a0198a4a3951f6709,0.9599778496876901,instructions,session-65a05d02a7a97
"[{'page_index': 0, 'viewing_time': 18114}]",18114,instructions,0,18124,0.0-0.0,anon_subject_280,659f04805339f753c1b65235,65a047821ffc042b4f545e75,0.45211612197737105,instructions,session-65a04819c7917
"[{'page_index': 0, 'viewing_time': 12882}]",12883,instructions,0,12897,0.0-0.0,anon_subject_156,659f04805339f753c1b65235,65a04797ce8132962971ffe6,0.6197971509750642,instructions,session-65a0480a53b3e
"[{'page_index': 0, 'viewing_time': 72475}]",72475,instructions,0,72476,0.0-0.0,anon_subject_126,659f04805339f753c1b65235,65a03f253cf0fef29ad2a82c,0.9529210887221725,instructions,session-65a040305fef7
"[{'page_index': 0, 'viewing_time': 19757}]",19758,instructions,0,19765,0.0-0.0,anon_subject_96,659f04805339f753c1b65235,65a04720420a02f3939b322b,0.12469492739170152,instructions,session-65a047b091ee7
"[{'page_index': 0, 'viewing_time': 14954}]",14954,instructions,0,14957,0.0-0.0,anon_subject_94,659f04805339f753c1b65235,65a05a81c3a05e150c57b622,0.6193868187069016,instructions,session-65a05b1d857c2
"[{'page_index': 0, 'viewing_time': 21064}]",21064,instructions,0,21070,0.0-0.0,anon_subject_271,659f04805339f753c1b65235,65a047542a197f9cd83e42ba,0.15957627589179735,instructions,session-65a047f99d025
"[{'page_index': 0, 'viewing_time': 8533}]",8533,instructions,0,8535,0.0-0.0,anon_subject_193,659f04805339f753c1b65235,65a03f33214275fb72e5c2ef,0.7596065740239143,instructions,session-65a03f94bd5e3
"[{'page_index': 0, 'viewing_time': 38676}]",38676,instructions,0,38679,0.0-0.0,anon_subject_111,659f04805339f753c1b65235,65a047ae3769279b830a4d81,0.886667983865651,instructions,session-65a04862a38f1
"[{'page_index': 0, 'viewing_time': 36163}]",36165,instructions,0,36179,0.0-0.0,anon_subject_262,659f04805339f753c1b65235,65a02b2bba9f28bc37c446df,0.176992031245097,instructions,session-65a02c2a09112
"[{'page_index': 0, 'viewing_time': 18017}]",18017,instructions,0,18020,0.0-0.0,anon_subject_101,659f04805339f753c1b65235,65a05a61fe51d8b6cef36e76,0.9222336217211988,instructions,session-65a05b57486b5
"[{'page_index': 0, 'viewing_time': 1397}]",1397,instructions,0,1400,0.0-0.0,anon_subject_297,659f04805339f753c1b65235,65a040e00198a4a3951f613b,0.4954437267559386,instructions,session-65a041583ce7c
"[{'page_index': 0, 'viewing_time': 1162}]",1163,instructions,0,1168,0.0-0.0,anon_subject_217,659f04805339f753c1b65235,65a05a78a870e799565462a7,0.6863760239185992,instructions,session-65a05aeba57a4
"[{'page_index': 0, 'viewing_time': 7407}]",7407,instructions,0,7415,0.0-0.0,anon_subject_177,659f04805339f753c1b65235,65a03f3f7981ab69f5c32d64,0.8282521214929688,instructions,session-65a03fca95dc9
"[{'page_index': 0, 'viewing_time': 38778}]",38779,instructions,0,38783,0.0-0.0,anon_subject_286,659f04805339f753c1b65235,65a04773a068e743e9555bd4,0.5870452131345207,instructions,session-65a04823e235f
"[{'page_index': 0, 'viewing_time': 32357}]",32360,instructions,0,32382,0.0-0.0,anon_subject_70,659f04805339f753c1b65235,65a04784e6891ded9ae07a7d,0.6409343559275458,instructions,session-65a048380be29
"[{'page_index': 0, 'viewing_time': 22068}]",22068,instructions,0,22070,0.0-0.0,anon_subject_43,659f04805339f753c1b65235,65a03fa2975ac8e822b372d7,0.9913226701748024,instructions,session-65a0408f039c5
"[{'page_index': 0, 'viewing_time': 19803}]",19804,instructions,0,19811,0.0-0.0,anon_subject_173,659f04805339f753c1b65235,65a05a63420a02f3939b3815,0.1034297357750682,instructions,session-65a05ae561371
"[{'page_index': 0, 'viewing_time': 41957}]",41958,instructions,0,41960,0.0-0.0,anon_subject_296,659f04805339f753c1b65235,65a05a662159acf4685805f9,0.5580582794481992,instructions,session-65a05c0be8cf9
"[{'page_index': 0, 'viewing_time': 17447}]",17447,instructions,0,17451,0.0-0.0,anon_subject_129,659f04805339f753c1b65235,65a05a8e0e6a0108526be3f6,0.16039678129796164,instructions,session-65a05c44b2969
"[{'page_index': 0, 'viewing_time': 7227}]",7228,instructions,0,7237,0.0-0.0,anon_subject_201,659f04805339f753c1b65235,65a05a6b15177d3861dbebf5,0.40493506703625237,instructions,session-65a05beaec752
"[{'page_index': 0, 'viewing_time': 49293}]",49293,instructions,0,49295,0.0-0.0,anon_subject_25,659f04805339f753c1b65235,65a047b15e58d51b4f3e4533,0.9933303554264158,instructions,session-65a048b8aa9a9
"[{'page_index': 0, 'viewing_time': 38656}]",38656,instructions,0,38661,0.0-0.0,anon_subject_86,659f04805339f753c1b65235,65a03f6d987bd492454d456f,0.7650713891521803,instructions,session-65a0402b9d1da
"[{'page_index': 0, 'viewing_time': 100762}]",100763,instructions,0,100761,0.0-0.0,anon_subject_224,659f04805339f753c1b65235,65a05b78c58774cde45feda0,0.6760015374032339,instructions,session-65a05c6522b91
"[{'page_index': 0, 'viewing_time': 115811}]",115811,instructions,0,115821,0.0-0.0,anon_subject_204,659f04805339f753c1b65235,65a05a7c6e869bf85df4de05,0.9856063194649065,instructions,session-65a05ba387964
"[{'page_index': 0, 'viewing_time': 12879}]",12879,instructions,0,12887,0.0-0.0,anon_subject_132,659f04805339f753c1b65235,65a028b8a068e743e955550a,0.9632509395969919,instructions,session-65a02957d1efb
"[{'page_index': 0, 'viewing_time': 16425}]",16426,instructions,0,16429,0.0-0.0,anon_subject_274,659f04805339f753c1b65235,65a05cb4c9e1a662cc1f67d3,0.564191779231261,instructions,session-65a05d7c3ea33
"[{'page_index': 0, 'viewing_time': 24443}]",24443,instructions,0,24446,0.0-0.0,anon_subject_227,659f04805339f753c1b65235,65a05a803cf0fef29ad2aeb6,0.07669682863044125,instructions,session-65a05b1fbc647
"[{'page_index': 0, 'viewing_time': 14659}]",14660,instructions,0,14662,0.0-0.0,anon_subject_248,659f04805339f753c1b65235,65a047ac277118eefd0f4144,0.14548094641213916,instructions,session-65a0490b43ff0
"[{'page_index': 0, 'viewing_time': 57802}]",57803,instructions,0,57807,0.0-0.0,anon_subject_0,659f04805339f753c1b65235,65a05a7af60c89cb87203dc8,0.14687427963406408,instructions,session-65a05bf152bfb
"[{'page_index': 0, 'viewing_time': 9828}]",9828,instructions,0,9830,0.0-0.0,anon_subject_26,659f04805339f753c1b65235,65a047653ac2f375865f4ecb,0.07085894228254297,instructions,session-65a047f353b99
"[{'page_index': 0, 'viewing_time': 24327}]",24327,instructions,0,24331,0.0-0.0,anon_subject_23,659f04805339f753c1b65235,65a04743587aebae10afac66,0.764876894226086,instructions,session-65a0482ca0b4f
"[{'page_index': 0, 'viewing_time': 19733}]",19733,instructions,0,19735,0.0-0.0,anon_subject_183,659f04805339f753c1b65235,65a02959ac5a610e8f99de3f,0.14523445851099503,instructions,session-65a029d61b4d6
"[{'page_index': 0, 'viewing_time': 32294}]",32295,instructions,0,32307,0.0-0.0,anon_subject_176,659f04805339f753c1b65235,65a0475603787e97c70f7cb4,0.24531131544152207,instructions,session-65a0485da91b1
"[{'page_index': 0, 'viewing_time': 9730}]",9731,instructions,0,9763,0.0-0.0,anon_subject_137,659f04805339f753c1b65235,65a05a76958dc9b1a7f39e60,0.969723734626087,instructions,session-65a05b363a76a
"[{'page_index': 0, 'viewing_time': 29209}]",29210,instructions,0,29226,0.0-0.0,anon_subject_73,659f04805339f753c1b65235,65a05a6c05a2eebaddf4d865,0.05947860568553898,instructions,session-65a05bd13760b
"[{'page_index': 0, 'viewing_time': 24637}]",24638,instructions,0,24643,0.0-0.0,anon_subject_144,659f04805339f753c1b65235,65a0276b97cef2e56e5fe34e,0.891700260433824,instructions,session-65a0281f5d2cf
