rt,stimulus,response,trial_type,trial_index,time_elapsed,internal_node_id,subject_id,study_id,session_id,rng_seed,session_file_id,task,success,completion_time,exp_type
935.0,"
    <div class=""jspsych-content"" align=left style=""width:100%;text-align: left;"">
    <p>Congratulations, you finished the practice trials! Now we will move on to the experiment.</p>
    <p>Remember, your task is the following:
    <p>
    <ul>
      <li>Read each question carefully.</li>
      <li>Answer whether the thing in the question can or cannot be done, based on what is possible given the physical laws of the real world.</li>
      <li>You will answer by pressing the <b>""1""</b> key for YES, or the <b>""0""</b> key for NO.</li>
      <li>Respond as quickly as you can.</li>
    </ul>
    <br>
  <p>Press SPACEBAR to begin the experiment.</p>
  </div>", ,html-keyboard-response,9.0,44742.0,0.0-2.0,anon_subject_285,659f04805339f753c1b65235,65a03ef5ee5c94479846d5af,0.06914232995603098,session-65a04185c5cb4,,,,
,"
  <div style=""font-size:20px;"">
      <p>Your response has been logged.</p>
  </div>
  ",,html-keyboard-response,11.0,48399.0,0.0-3.0-1.0,anon_subject_285,659f04805339f753c1b65235,65a03ef5ee5c94479846d5af,0.06914232995603098,session-65a04185c5cb4,prompt,,,
,"
  <div style=""font-size:20px;"">
      <p>Your response has been logged.</p>
  </div>
  ",,html-keyboard-response,13.0,50724.0,0.0-3.0-1.1,anon_subject_285,659f04805339f753c1b65235,65a03ef5ee5c94479846d5af,0.06914232995603098,session-65a04185c5cb4,prompt,,,
,"
  <div style=""font-size:20px;"">
      <p>Your response has been logged.</p>
  </div>
  ",,html-keyboard-response,15.0,53443.0,0.0-3.0-1.2,anon_subject_285,659f04805339f753c1b65235,65a03ef5ee5c94479846d5af,0.06914232995603098,session-65a04185c5cb4,prompt,,,
,"
  <div style=""font-size:20px;"">
      <p>Your response has been logged.</p>
  </div>
  ",,html-keyboard-response,17.0,56547.0,0.0-3.0-1.3,anon_subject_285,659f04805339f753c1b65235,65a03ef5ee5c94479846d5af,0.06914232995603098,session-65a04185c5cb4,prompt,,,
,"
  <div style=""font-size:20px;"">
      <p>Your response has been logged.</p>
  </div>
  ",,html-keyboard-response,19.0,59145.0,0.0-3.0-1.4,anon_subject_285,659f04805339f753c1b65235,65a03ef5ee5c94479846d5af,0.06914232995603098,session-65a04185c5cb4,prompt,,,
,"
  <div style=""font-size:20px;"">
      <p>Your response has been logged.</p>
  </div>
  ",,html-keyboard-response,21.0,62258.0,0.0-3.0-1.5,anon_subject_285,659f04805339f753c1b65235,65a03ef5ee5c94479846d5af,0.06914232995603098,session-65a04185c5cb4,prompt,,,
,"
  <div style=""font-size:20px;"">
      <p>Your response has been logged.</p>
  </div>
  ",,html-keyboard-response,23.0,65555.0,0.0-3.0-1.6,anon_subject_285,659f04805339f753c1b65235,65a03ef5ee5c94479846d5af,0.06914232995603098,session-65a04185c5cb4,prompt,,,
,"
  <div style=""font-size:20px;"">
      <p>Your response has been logged.</p>
  </div>
  ",,html-keyboard-response,25.0,68675.0,0.0-3.0-1.7,anon_subject_285,659f04805339f753c1b65235,65a03ef5ee5c94479846d5af,0.06914232995603098,session-65a04185c5cb4,prompt,,,
,"
  <div style=""font-size:20px;"">
      <p>Your response has been logged.</p>
  </div>
  ",,html-keyboard-response,27.0,71433.0,0.0-3.0-1.8,anon_subject_285,659f04805339f753c1b65235,65a03ef5ee5c94479846d5af,0.06914232995603098,session-65a04185c5cb4,prompt,,,
,"
  <div style=""font-size:20px;"">
      <p>Your response has been logged.</p>
  </div>
  ",,html-keyboard-response,29.0,76615.0,0.0-3.0-1.9,anon_subject_285,659f04805339f753c1b65235,65a03ef5ee5c94479846d5af,0.06914232995603098,session-65a04185c5cb4,prompt,,,
,"
  <div style=""font-size:20px;"">
      <p>Your response has been logged.</p>
  </div>
  ",,html-keyboard-response,31.0,79380.0,0.0-3.0-1.10,anon_subject_285,659f04805339f753c1b65235,65a03ef5ee5c94479846d5af,0.06914232995603098,session-65a04185c5cb4,prompt,,,
,"
  <div style=""font-size:20px;"">
      <p>Your response has been logged.</p>
  </div>
  ",,html-keyboard-response,33.0,82594.0,0.0-3.0-1.11,anon_subject_285,659f04805339f753c1b65235,65a03ef5ee5c94479846d5af,0.06914232995603098,session-65a04185c5cb4,prompt,,,
,"
  <div style=""font-size:20px;"">
      <p>Your response has been logged.</p>
  </div>
  ",,html-keyboard-response,35.0,85691.0,0.0-3.0-1.12,anon_subject_285,659f04805339f753c1b65235,65a03ef5ee5c94479846d5af,0.06914232995603098,session-65a04185c5cb4,prompt,,,
,"
  <div style=""font-size:20px;"">
      <p>Your response has been logged.</p>
  </div>
  ",,html-keyboard-response,37.0,88377.0,0.0-3.0-1.13,anon_subject_285,659f04805339f753c1b65235,65a03ef5ee5c94479846d5af,0.06914232995603098,session-65a04185c5cb4,prompt,,,
,"
  <div style=""font-size:20px;"">
      <p>Your response has been logged.</p>
  </div>
  ",,html-keyboard-response,39.0,90783.0,0.0-3.0-1.14,anon_subject_285,659f04805339f753c1b65235,65a03ef5ee5c94479846d5af,0.06914232995603098,session-65a04185c5cb4,prompt,,,
,"
  <div style=""font-size:20px;"">
      <p>Your response has been logged.</p>
  </div>
  ",,html-keyboard-response,41.0,93537.0,0.0-3.0-1.15,anon_subject_285,659f04805339f753c1b65235,65a03ef5ee5c94479846d5af,0.06914232995603098,session-65a04185c5cb4,prompt,,,
,"
  <div style=""font-size:20px;"">
      <p>Your response has been logged.</p>
  </div>
  ",,html-keyboard-response,43.0,96061.0,0.0-3.0-1.16,anon_subject_285,659f04805339f753c1b65235,65a03ef5ee5c94479846d5af,0.06914232995603098,session-65a04185c5cb4,prompt,,,
,"
  <div style=""font-size:20px;"">
      <p>Your response has been logged.</p>
  </div>
  ",,html-keyboard-response,45.0,99749.0,0.0-3.0-1.17,anon_subject_285,659f04805339f753c1b65235,65a03ef5ee5c94479846d5af,0.06914232995603098,session-65a04185c5cb4,prompt,,,
,,,,,,,,,,,session-65a04185c5cb4,,True,2024-01-11T19:29:05.666Z,gesture-beat-expt-pilot
20364.0,"
    <div class=""jspsych-content"" align=left style=""width:100%;text-align: left;"">
    <p>Congratulations, you finished the practice trials! Now we will move on to the experiment.</p>
    <p>Remember, your task is the following:
    <p>
    <ul>
      <li>Read each question carefully.</li>
      <li>Answer whether the thing in the question can or cannot be done, based on what is possible given the physical laws of the real world.</li>
      <li>You will answer by pressing the <b>""1""</b> key for YES, or the <b>""0""</b> key for NO.</li>
      <li>Respond as quickly as you can.</li>
    </ul>
    <br>
  <p>Press SPACEBAR to begin the experiment.</p>
  </div>", ,html-keyboard-response,17.0,66231.0,0.0-2.0,anon_subject_30,659f04805339f753c1b65235,65a0471539341d75b93cf885,0.7930852442032413,session-65a04795a47b9,,,,
,"
  <div style=""font-size:20px;"">
      <p>Your response has been logged.</p>
  </div>
  ",,html-keyboard-response,19.0,70906.0,0.0-3.0-1.0,anon_subject_30,659f04805339f753c1b65235,65a0471539341d75b93cf885,0.7930852442032413,session-65a04795a47b9,prompt,,,
,"
  <div style=""font-size:20px;"">
      <p>Your response has been logged.</p>
  </div>
  ",,html-keyboard-response,21.0,73575.0,0.0-3.0-1.1,anon_subject_30,659f04805339f753c1b65235,65a0471539341d75b93cf885,0.7930852442032413,session-65a04795a47b9,prompt,,,
,"
  <div style=""font-size:20px;"">
      <p>Your response has been logged.</p>
  </div>
  ",,html-keyboard-response,23.0,75824.0,0.0-3.0-1.2,anon_subject_30,659f04805339f753c1b65235,65a0471539341d75b93cf885,0.7930852442032413,session-65a04795a47b9,prompt,,,
,"
  <div style=""font-size:20px;"">
      <p>Your response has been logged.</p>
  </div>
  ",,html-keyboard-response,25.0,78257.0,0.0-3.0-1.3,anon_subject_30,659f04805339f753c1b65235,65a0471539341d75b93cf885,0.7930852442032413,session-65a04795a47b9,prompt,,,
,"
  <div style=""font-size:20px;"">
      <p>Your response has been logged.</p>
  </div>
  ",,html-keyboard-response,27.0,80592.0,0.0-3.0-1.4,anon_subject_30,659f04805339f753c1b65235,65a0471539341d75b93cf885,0.7930852442032413,session-65a04795a47b9,prompt,,,
,"
  <div style=""font-size:20px;"">
      <p>Your response has been logged.</p>
  </div>
  ",,html-keyboard-response,29.0,82754.0,0.0-3.0-1.5,anon_subject_30,659f04805339f753c1b65235,65a0471539341d75b93cf885,0.7930852442032413,session-65a04795a47b9,prompt,,,
,"
  <div style=""font-size:20px;"">
      <p>Your response has been logged.</p>
  </div>
  ",,html-keyboard-response,31.0,85070.0,0.0-3.0-1.6,anon_subject_30,659f04805339f753c1b65235,65a0471539341d75b93cf885,0.7930852442032413,session-65a04795a47b9,prompt,,,
,"
  <div style=""font-size:20px;"">
      <p>Your response has been logged.</p>
  </div>
  ",,html-keyboard-response,33.0,87225.0,0.0-3.0-1.7,anon_subject_30,659f04805339f753c1b65235,65a0471539341d75b93cf885,0.7930852442032413,session-65a04795a47b9,prompt,,,
,"
  <div style=""font-size:20px;"">
      <p>Your response has been logged.</p>
  </div>
  ",,html-keyboard-response,35.0,89848.0,0.0-3.0-1.8,anon_subject_30,659f04805339f753c1b65235,65a0471539341d75b93cf885,0.7930852442032413,session-65a04795a47b9,prompt,,,
,"
  <div style=""font-size:20px;"">
      <p>Your response has been logged.</p>
  </div>
  ",,html-keyboard-response,37.0,92188.0,0.0-3.0-1.9,anon_subject_30,659f04805339f753c1b65235,65a0471539341d75b93cf885,0.7930852442032413,session-65a04795a47b9,prompt,,,
,"
  <div style=""font-size:20px;"">
      <p>Your response has been logged.</p>
  </div>
  ",,html-keyboard-response,39.0,94254.0,0.0-3.0-1.10,anon_subject_30,659f04805339f753c1b65235,65a0471539341d75b93cf885,0.7930852442032413,session-65a04795a47b9,prompt,,,
,"
  <div style=""font-size:20px;"">
      <p>Your response has been logged.</p>
  </div>
  ",,html-keyboard-response,41.0,96295.0,0.0-3.0-1.11,anon_subject_30,659f04805339f753c1b65235,65a0471539341d75b93cf885,0.7930852442032413,session-65a04795a47b9,prompt,,,
,"
  <div style=""font-size:20px;"">
      <p>Your response has been logged.</p>
  </div>
  ",,html-keyboard-response,43.0,98490.0,0.0-3.0-1.12,anon_subject_30,659f04805339f753c1b65235,65a0471539341d75b93cf885,0.7930852442032413,session-65a04795a47b9,prompt,,,
,"
  <div style=""font-size:20px;"">
      <p>Your response has been logged.</p>
  </div>
  ",,html-keyboard-response,45.0,100672.0,0.0-3.0-1.13,anon_subject_30,659f04805339f753c1b65235,65a0471539341d75b93cf885,0.7930852442032413,session-65a04795a47b9,prompt,,,
,"
  <div style=""font-size:20px;"">
      <p>Your response has been logged.</p>
  </div>
  ",,html-keyboard-response,47.0,102923.0,0.0-3.0-1.14,anon_subject_30,659f04805339f753c1b65235,65a0471539341d75b93cf885,0.7930852442032413,session-65a04795a47b9,prompt,,,
,"
  <div style=""font-size:20px;"">
      <p>Your response has been logged.</p>
  </div>
  ",,html-keyboard-response,49.0,105195.0,0.0-3.0-1.15,anon_subject_30,659f04805339f753c1b65235,65a0471539341d75b93cf885,0.7930852442032413,session-65a04795a47b9,prompt,,,
,"
  <div style=""font-size:20px;"">
      <p>Your response has been logged.</p>
  </div>
  ",,html-keyboard-response,51.0,107363.0,0.0-3.0-1.16,anon_subject_30,659f04805339f753c1b65235,65a0471539341d75b93cf885,0.7930852442032413,session-65a04795a47b9,prompt,,,
,"
  <div style=""font-size:20px;"">
      <p>Your response has been logged.</p>
  </div>
  ",,html-keyboard-response,53.0,110418.0,0.0-3.0-1.17,anon_subject_30,659f04805339f753c1b65235,65a0471539341d75b93cf885,0.7930852442032413,session-65a04795a47b9,prompt,,,
,,,,,,,,,,,session-65a04795a47b9,,True,2024-01-11T19:55:01.623Z,gesture-beat-expt-pilot
2615.0,"
    <div class=""jspsych-content"" align=left style=""width:100%;text-align: left;"">
    <p>Congratulations, you finished the practice trials! Now we will move on to the experiment.</p>
    <p>Remember, your task is the following:
    <p>
    <ul>
      <li>Read each question carefully.</li>
      <li>Answer whether the thing in the question can or cannot be done, based on what is possible given the physical laws of the real world.</li>
      <li>You will answer by pressing the <b>""1""</b> key for YES, or the <b>""0""</b> key for NO.</li>
      <li>Respond as quickly as you can.</li>
    </ul>
    <br>
  <p>Press SPACEBAR to begin the experiment.</p>
  </div>", ,html-keyboard-response,17.0,47931.0,0.0-2.0,anon_subject_146,659f04805339f753c1b65235,65a047892086d07cc8439b7d,0.6874473965112899,session-65a0480f36680,,,,
,"
  <div style=""font-size:20px;"">
      <p>Your response has been logged.</p>
  </div>
  ",,html-keyboard-response,19.0,51263.0,0.0-3.0-1.0,anon_subject_146,659f04805339f753c1b65235,65a047892086d07cc8439b7d,0.6874473965112899,session-65a0480f36680,prompt,,,
,"
  <div style=""font-size:20px;"">
      <p>Your response has been logged.</p>
  </div>
  ",,html-keyboard-response,21.0,54151.0,0.0-3.0-1.1,anon_subject_146,659f04805339f753c1b65235,65a047892086d07cc8439b7d,0.6874473965112899,session-65a0480f36680,prompt,,,
,"
  <div style=""font-size:20px;"">
      <p>Your response has been logged.</p>
  </div>
  ",,html-keyboard-response,23.0,56860.0,0.0-3.0-1.2,anon_subject_146,659f04805339f753c1b65235,65a047892086d07cc8439b7d,0.6874473965112899,session-65a0480f36680,prompt,,,
,"
  <div style=""font-size:20px;"">
      <p>Your response has been logged.</p>
  </div>
  ",,html-keyboard-response,25.0,58990.0,0.0-3.0-1.3,anon_subject_146,659f04805339f753c1b65235,65a047892086d07cc8439b7d,0.6874473965112899,session-65a0480f36680,prompt,,,
,"
  <div style=""font-size:20px;"">
      <p>Your response has been logged.</p>
  </div>
  ",,html-keyboard-response,27.0,62527.0,0.0-3.0-1.4,anon_subject_146,659f04805339f753c1b65235,65a047892086d07cc8439b7d,0.6874473965112899,session-65a0480f36680,prompt,,,
,"
  <div style=""font-size:20px;"">
      <p>Your response has been logged.</p>
  </div>
  ",,html-keyboard-response,29.0,65575.0,0.0-3.0-1.5,anon_subject_146,659f04805339f753c1b65235,65a047892086d07cc8439b7d,0.6874473965112899,session-65a0480f36680,prompt,,,
,"
  <div style=""font-size:20px;"">
      <p>Your response has been logged.</p>
  </div>
  ",,html-keyboard-response,31.0,67760.0,0.0-3.0-1.6,anon_subject_146,659f04805339f753c1b65235,65a047892086d07cc8439b7d,0.6874473965112899,session-65a0480f36680,prompt,,,
,"
  <div style=""font-size:20px;"">
      <p>Your response has been logged.</p>
  </div>
  ",,html-keyboard-response,33.0,70412.0,0.0-3.0-1.7,anon_subject_146,659f04805339f753c1b65235,65a047892086d07cc8439b7d,0.6874473965112899,session-65a0480f36680,prompt,,,
,"
  <div style=""font-size:20px;"">
      <p>Your response has been logged.</p>
  </div>
  ",,html-keyboard-response,35.0,73354.0,0.0-3.0-1.8,anon_subject_146,659f04805339f753c1b65235,65a047892086d07cc8439b7d,0.6874473965112899,session-65a0480f36680,prompt,,,
,"
  <div style=""font-size:20px;"">
      <p>Your response has been logged.</p>
  </div>
  ",,html-keyboard-response,37.0,76647.0,0.0-3.0-1.9,anon_subject_146,659f04805339f753c1b65235,65a047892086d07cc8439b7d,0.6874473965112899,session-65a0480f36680,prompt,,,
,"
  <div style=""font-size:20px;"">
      <p>Your response has been logged.</p>
  </div>
  ",,html-keyboard-response,39.0,79412.0,0.0-3.0-1.10,anon_subject_146,659f04805339f753c1b65235,65a047892086d07cc8439b7d,0.6874473965112899,session-65a0480f36680,prompt,,,
,"
  <div style=""font-size:20px;"">
      <p>Your response has been logged.</p>
  </div>
  ",,html-keyboard-response,41.0,81921.0,0.0-3.0-1.11,anon_subject_146,659f04805339f753c1b65235,65a047892086d07cc8439b7d,0.6874473965112899,session-65a0480f36680,prompt,,,
,"
  <div style=""font-size:20px;"">
      <p>Your response has been logged.</p>
  </div>
  ",,html-keyboard-response,43.0,84984.0,0.0-3.0-1.12,anon_subject_146,659f04805339f753c1b65235,65a047892086d07cc8439b7d,0.6874473965112899,session-65a0480f36680,prompt,,,
,"
  <div style=""font-size:20px;"">
      <p>Your response has been logged.</p>
  </div>
  ",,html-keyboard-response,45.0,87268.0,0.0-3.0-1.13,anon_subject_146,659f04805339f753c1b65235,65a047892086d07cc8439b7d,0.6874473965112899,session-65a0480f36680,prompt,,,
,"
  <div style=""font-size:20px;"">
      <p>Your response has been logged.</p>
  </div>
  ",,html-keyboard-response,47.0,89817.0,0.0-3.0-1.14,anon_subject_146,659f04805339f753c1b65235,65a047892086d07cc8439b7d,0.6874473965112899,session-65a0480f36680,prompt,,,
,"
  <div style=""font-size:20px;"">
      <p>Your response has been logged.</p>
  </div>
  ",,html-keyboard-response,49.0,92364.0,0.0-3.0-1.15,anon_subject_146,659f04805339f753c1b65235,65a047892086d07cc8439b7d,0.6874473965112899,session-65a0480f36680,prompt,,,
,"
  <div style=""font-size:20px;"">
      <p>Your response has been logged.</p>
  </div>
  ",,html-keyboard-response,51.0,95224.0,0.0-3.0-1.16,anon_subject_146,659f04805339f753c1b65235,65a047892086d07cc8439b7d,0.6874473965112899,session-65a0480f36680,prompt,,,
,"
  <div style=""font-size:20px;"">
      <p>Your response has been logged.</p>
  </div>
  ",,html-keyboard-response,53.0,98797.0,0.0-3.0-1.17,anon_subject_146,659f04805339f753c1b65235,65a047892086d07cc8439b7d,0.6874473965112899,session-65a0480f36680,prompt,,,
,,,,,,,,,,,session-65a0480f36680,,True,2024-01-11T19:57:03.009Z,gesture-beat-expt-pilot
3725.0,"
    <div class=""jspsych-content"" align=left style=""width:100%;text-align: left;"">
    <p>Congratulations, you finished the practice trials! Now we will move on to the experiment.</p>
    <p>Remember, your task is the following:
    <p>
    <ul>
      <li>Read each question carefully.</li>
      <li>Answer whether the thing in the question can or cannot be done, based on what is possible given the physical laws of the real world.</li>
      <li>You will answer by pressing the <b>""1""</b> key for YES, or the <b>""0""</b> key for NO.</li>
      <li>Respond as quickly as you can.</li>
    </ul>
    <br>
  <p>Press SPACEBAR to begin the experiment.</p>
  </div>", ,html-keyboard-response,17.0,47565.0,0.0-2.0,anon_subject_42,659f04805339f753c1b65235,65a0479e591c52695cdbe8c1,0.4290670587524601,session-65a0480f911e6,,,,
,"
  <div style=""font-size:20px;"">
      <p>Your response has been logged.</p>
  </div>
  ",,html-keyboard-response,19.0,51029.0,0.0-3.0-1.0,anon_subject_42,659f04805339f753c1b65235,65a0479e591c52695cdbe8c1,0.4290670587524601,session-65a0480f911e6,prompt,,,
,"
  <div style=""font-size:20px;"">
      <p>Your response has been logged.</p>
  </div>
  ",,html-keyboard-response,21.0,53558.0,0.0-3.0-1.1,anon_subject_42,659f04805339f753c1b65235,65a0479e591c52695cdbe8c1,0.4290670587524601,session-65a0480f911e6,prompt,,,
,"
  <div style=""font-size:20px;"">
      <p>Your response has been logged.</p>
  </div>
  ",,html-keyboard-response,23.0,56223.0,0.0-3.0-1.2,anon_subject_42,659f04805339f753c1b65235,65a0479e591c52695cdbe8c1,0.4290670587524601,session-65a0480f911e6,prompt,,,
,"
  <div style=""font-size:20px;"">
      <p>Your response has been logged.</p>
  </div>
  ",,html-keyboard-response,25.0,59117.0,0.0-3.0-1.3,anon_subject_42,659f04805339f753c1b65235,65a0479e591c52695cdbe8c1,0.4290670587524601,session-65a0480f911e6,prompt,,,
,"
  <div style=""font-size:20px;"">
      <p>Your response has been logged.</p>
  </div>
  ",,html-keyboard-response,27.0,61740.0,0.0-3.0-1.4,anon_subject_42,659f04805339f753c1b65235,65a0479e591c52695cdbe8c1,0.4290670587524601,session-65a0480f911e6,prompt,,,
,"
  <div style=""font-size:20px;"">
      <p>Your response has been logged.</p>
  </div>
  ",,html-keyboard-response,29.0,64054.0,0.0-3.0-1.5,anon_subject_42,659f04805339f753c1b65235,65a0479e591c52695cdbe8c1,0.4290670587524601,session-65a0480f911e6,prompt,,,
,"
  <div style=""font-size:20px;"">
      <p>Your response has been logged.</p>
  </div>
  ",,html-keyboard-response,31.0,67013.0,0.0-3.0-1.6,anon_subject_42,659f04805339f753c1b65235,65a0479e591c52695cdbe8c1,0.4290670587524601,session-65a0480f911e6,prompt,,,
,"
  <div style=""font-size:20px;"">
      <p>Your response has been logged.</p>
  </div>
  ",,html-keyboard-response,33.0,69436.0,0.0-3.0-1.7,anon_subject_42,659f04805339f753c1b65235,65a0479e591c52695cdbe8c1,0.4290670587524601,session-65a0480f911e6,prompt,,,
,"
  <div style=""font-size:20px;"">
      <p>Your response has been logged.</p>
  </div>
  ",,html-keyboard-response,35.0,71731.0,0.0-3.0-1.8,anon_subject_42,659f04805339f753c1b65235,65a0479e591c52695cdbe8c1,0.4290670587524601,session-65a0480f911e6,prompt,,,
,"
  <div style=""font-size:20px;"">
      <p>Your response has been logged.</p>
  </div>
  ",,html-keyboard-response,37.0,74089.0,0.0-3.0-1.9,anon_subject_42,659f04805339f753c1b65235,65a0479e591c52695cdbe8c1,0.4290670587524601,session-65a0480f911e6,prompt,,,
,"
  <div style=""font-size:20px;"">
      <p>Your response has been logged.</p>
  </div>
  ",,html-keyboard-response,39.0,76481.0,0.0-3.0-1.10,anon_subject_42,659f04805339f753c1b65235,65a0479e591c52695cdbe8c1,0.4290670587524601,session-65a0480f911e6,prompt,,,
,"
  <div style=""font-size:20px;"">
      <p>Your response has been logged.</p>
  </div>
  ",,html-keyboard-response,41.0,78685.0,0.0-3.0-1.11,anon_subject_42,659f04805339f753c1b65235,65a0479e591c52695cdbe8c1,0.4290670587524601,session-65a0480f911e6,prompt,,,
,"
  <div style=""font-size:20px;"">
      <p>Your response has been logged.</p>
  </div>
  ",,html-keyboard-response,43.0,80851.0,0.0-3.0-1.12,anon_subject_42,659f04805339f753c1b65235,65a0479e591c52695cdbe8c1,0.4290670587524601,session-65a0480f911e6,prompt,,,
,"
  <div style=""font-size:20px;"">
      <p>Your response has been logged.</p>
  </div>
  ",,html-keyboard-response,45.0,83902.0,0.0-3.0-1.13,anon_subject_42,659f04805339f753c1b65235,65a0479e591c52695cdbe8c1,0.4290670587524601,session-65a0480f911e6,prompt,,,
,"
  <div style=""font-size:20px;"">
      <p>Your response has been logged.</p>
  </div>
  ",,html-keyboard-response,47.0,86470.0,0.0-3.0-1.14,anon_subject_42,659f04805339f753c1b65235,65a0479e591c52695cdbe8c1,0.4290670587524601,session-65a0480f911e6,prompt,,,
,"
  <div style=""font-size:20px;"">
      <p>Your response has been logged.</p>
  </div>
  ",,html-keyboard-response,49.0,88789.0,0.0-3.0-1.15,anon_subject_42,659f04805339f753c1b65235,65a0479e591c52695cdbe8c1,0.4290670587524601,session-65a0480f911e6,prompt,,,
,"
  <div style=""font-size:20px;"">
      <p>Your response has been logged.</p>
  </div>
  ",,html-keyboard-response,51.0,91396.0,0.0-3.0-1.16,anon_subject_42,659f04805339f753c1b65235,65a0479e591c52695cdbe8c1,0.4290670587524601,session-65a0480f911e6,prompt,,,
,"
  <div style=""font-size:20px;"">
      <p>Your response has been logged.</p>
  </div>
  ",,html-keyboard-response,53.0,93852.0,0.0-3.0-1.17,anon_subject_42,659f04805339f753c1b65235,65a0479e591c52695cdbe8c1,0.4290670587524601,session-65a0480f911e6,prompt,,,
,,,,,,,,,,,session-65a0480f911e6,,True,2024-01-11T19:57:02.619Z,gesture-beat-expt-pilot
2434.0,"
    <div class=""jspsych-content"" align=left style=""width:100%;text-align: left;"">
    <p>Congratulations, you finished the practice trials! Now we will move on to the experiment.</p>
    <p>Remember, your task is the following:
    <p>
    <ul>
      <li>Read each question carefully.</li>
      <li>Answer whether the thing in the question can or cannot be done, based on what is possible given the physical laws of the real world.</li>
      <li>You will answer by pressing the <b>""1""</b> key for YES, or the <b>""0""</b> key for NO.</li>
      <li>Respond as quickly as you can.</li>
    </ul>
    <br>
  <p>Press SPACEBAR to begin the experiment.</p>
  </div>", ,html-keyboard-response,9.0,37486.0,0.0-2.0,anon_subject_28,659f04805339f753c1b65235,65a05a6f2bb7751b509056c3,0.23192453619459075,session-65a05b470364e,,,,
,"
  <div style=""font-size:20px;"">
      <p>Your response has been logged.</p>
  </div>
  ",,html-keyboard-response,11.0,40475.0,0.0-3.0-1.0,anon_subject_28,659f04805339f753c1b65235,65a05a6f2bb7751b509056c3,0.23192453619459075,session-65a05b470364e,prompt,,,
,"
  <div style=""font-size:20px;"">
      <p>Your response has been logged.</p>
  </div>
  ",,html-keyboard-response,13.0,42990.0,0.0-3.0-1.1,anon_subject_28,659f04805339f753c1b65235,65a05a6f2bb7751b509056c3,0.23192453619459075,session-65a05b470364e,prompt,,,
,"
  <div style=""font-size:20px;"">
      <p>Your response has been logged.</p>
  </div>
  ",,html-keyboard-response,15.0,45346.0,0.0-3.0-1.2,anon_subject_28,659f04805339f753c1b65235,65a05a6f2bb7751b509056c3,0.23192453619459075,session-65a05b470364e,prompt,,,
,"
  <div style=""font-size:20px;"">
      <p>Your response has been logged.</p>
  </div>
  ",,html-keyboard-response,17.0,47975.0,0.0-3.0-1.3,anon_subject_28,659f04805339f753c1b65235,65a05a6f2bb7751b509056c3,0.23192453619459075,session-65a05b470364e,prompt,,,
,"
  <div style=""font-size:20px;"">
      <p>Your response has been logged.</p>
  </div>
  ",,html-keyboard-response,19.0,53577.0,0.0-3.0-1.4,anon_subject_28,659f04805339f753c1b65235,65a05a6f2bb7751b509056c3,0.23192453619459075,session-65a05b470364e,prompt,,,
,"
  <div style=""font-size:20px;"">
      <p>Your response has been logged.</p>
  </div>
  ",,html-keyboard-response,21.0,55734.0,0.0-3.0-1.5,anon_subject_28,659f04805339f753c1b65235,65a05a6f2bb7751b509056c3,0.23192453619459075,session-65a05b470364e,prompt,,,
,"
  <div style=""font-size:20px;"">
      <p>Your response has been logged.</p>
  </div>
  ",,html-keyboard-response,23.0,59527.0,0.0-3.0-1.6,anon_subject_28,659f04805339f753c1b65235,65a05a6f2bb7751b509056c3,0.23192453619459075,session-65a05b470364e,prompt,,,
,"
  <div style=""font-size:20px;"">
      <p>Your response has been logged.</p>
  </div>
  ",,html-keyboard-response,25.0,62553.0,0.0-3.0-1.7,anon_subject_28,659f04805339f753c1b65235,65a05a6f2bb7751b509056c3,0.23192453619459075,session-65a05b470364e,prompt,,,
,"
  <div style=""font-size:20px;"">
      <p>Your response has been logged.</p>
  </div>
  ",,html-keyboard-response,27.0,65494.0,0.0-3.0-1.8,anon_subject_28,659f04805339f753c1b65235,65a05a6f2bb7751b509056c3,0.23192453619459075,session-65a05b470364e,prompt,,,
,"
  <div style=""font-size:20px;"">
      <p>Your response has been logged.</p>
  </div>
  ",,html-keyboard-response,29.0,67862.0,0.0-3.0-1.9,anon_subject_28,659f04805339f753c1b65235,65a05a6f2bb7751b509056c3,0.23192453619459075,session-65a05b470364e,prompt,,,
,"
  <div style=""font-size:20px;"">
      <p>Your response has been logged.</p>
  </div>
  ",,html-keyboard-response,31.0,70248.0,0.0-3.0-1.10,anon_subject_28,659f04805339f753c1b65235,65a05a6f2bb7751b509056c3,0.23192453619459075,session-65a05b470364e,prompt,,,
,"
  <div style=""font-size:20px;"">
      <p>Your response has been logged.</p>
  </div>
  ",,html-keyboard-response,33.0,72710.0,0.0-3.0-1.11,anon_subject_28,659f04805339f753c1b65235,65a05a6f2bb7751b509056c3,0.23192453619459075,session-65a05b470364e,prompt,,,
,"
  <div style=""font-size:20px;"">
      <p>Your response has been logged.</p>
  </div>
  ",,html-keyboard-response,35.0,75590.0,0.0-3.0-1.12,anon_subject_28,659f04805339f753c1b65235,65a05a6f2bb7751b509056c3,0.23192453619459075,session-65a05b470364e,prompt,,,
,"
  <div style=""font-size:20px;"">
      <p>Your response has been logged.</p>
  </div>
  ",,html-keyboard-response,37.0,77959.0,0.0-3.0-1.13,anon_subject_28,659f04805339f753c1b65235,65a05a6f2bb7751b509056c3,0.23192453619459075,session-65a05b470364e,prompt,,,
,"
  <div style=""font-size:20px;"">
      <p>Your response has been logged.</p>
  </div>
  ",,html-keyboard-response,39.0,80550.0,0.0-3.0-1.14,anon_subject_28,659f04805339f753c1b65235,65a05a6f2bb7751b509056c3,0.23192453619459075,session-65a05b470364e,prompt,,,
,"
  <div style=""font-size:20px;"">
      <p>Your response has been logged.</p>
  </div>
  ",,html-keyboard-response,41.0,82965.0,0.0-3.0-1.15,anon_subject_28,659f04805339f753c1b65235,65a05a6f2bb7751b509056c3,0.23192453619459075,session-65a05b470364e,prompt,,,
,"
  <div style=""font-size:20px;"">
      <p>Your response has been logged.</p>
  </div>
  ",,html-keyboard-response,43.0,86343.0,0.0-3.0-1.16,anon_subject_28,659f04805339f753c1b65235,65a05a6f2bb7751b509056c3,0.23192453619459075,session-65a05b470364e,prompt,,,
,"
  <div style=""font-size:20px;"">
      <p>Your response has been logged.</p>
  </div>
  ",,html-keyboard-response,45.0,90373.0,0.0-3.0-1.17,anon_subject_28,659f04805339f753c1b65235,65a05a6f2bb7751b509056c3,0.23192453619459075,session-65a05b470364e,prompt,,,
,,,,,,,,,,,session-65a05b470364e,,True,2024-01-11T21:19:07.816Z,gesture-beat-expt-pilot
15479.0,"
    <div class=""jspsych-content"" align=left style=""width:100%;text-align: left;"">
    <p>Congratulations, you finished the practice trials! Now we will move on to the experiment.</p>
    <p>Remember, your task is the following:
    <p>
    <ul>
      <li>Read each question carefully.</li>
      <li>Answer whether the thing in the question can or cannot be done, based on what is possible given the physical laws of the real world.</li>
      <li>You will answer by pressing the <b>""1""</b> key for YES, or the <b>""0""</b> key for NO.</li>
      <li>Respond as quickly as you can.</li>
    </ul>
    <br>
  <p>Press SPACEBAR to begin the experiment.</p>
  </div>", ,html-keyboard-response,41.0,151243.0,0.0-2.0,anon_subject_48,659f04805339f753c1b65235,65a05a84c58774cde45fed65,0.419133092128984,session-65a05b7603cc7,,,,
,"
  <div style=""font-size:20px;"">
      <p>Your response has been logged.</p>
  </div>
  ",,html-keyboard-response,43.0,154294.0,0.0-3.0-1.0,anon_subject_48,659f04805339f753c1b65235,65a05a84c58774cde45fed65,0.419133092128984,session-65a05b7603cc7,prompt,,,
,"
  <div style=""font-size:20px;"">
      <p>Your response has been logged.</p>
  </div>
  ",,html-keyboard-response,45.0,158503.0,0.0-3.0-1.1,anon_subject_48,659f04805339f753c1b65235,65a05a84c58774cde45fed65,0.419133092128984,session-65a05b7603cc7,prompt,,,
,"
  <div style=""font-size:20px;"">
      <p>Your response has been logged.</p>
  </div>
  ",,html-keyboard-response,47.0,163699.0,0.0-3.0-1.2,anon_subject_48,659f04805339f753c1b65235,65a05a84c58774cde45fed65,0.419133092128984,session-65a05b7603cc7,prompt,,,
,"
  <div style=""font-size:20px;"">
      <p>Your response has been logged.</p>
  </div>
  ",,html-keyboard-response,49.0,166382.0,0.0-3.0-1.3,anon_subject_48,659f04805339f753c1b65235,65a05a84c58774cde45fed65,0.419133092128984,session-65a05b7603cc7,prompt,,,
,"
  <div style=""font-size:20px;"">
      <p>Your response has been logged.</p>
  </div>
  ",,html-keyboard-response,51.0,169110.0,0.0-3.0-1.4,anon_subject_48,659f04805339f753c1b65235,65a05a84c58774cde45fed65,0.419133092128984,session-65a05b7603cc7,prompt,,,
,"
  <div style=""font-size:20px;"">
      <p>Your response has been logged.</p>
  </div>
  ",,html-keyboard-response,53.0,171880.0,0.0-3.0-1.5,anon_subject_48,659f04805339f753c1b65235,65a05a84c58774cde45fed65,0.419133092128984,session-65a05b7603cc7,prompt,,,
,"
  <div style=""font-size:20px;"">
      <p>Your response has been logged.</p>
  </div>
  ",,html-keyboard-response,55.0,174549.0,0.0-3.0-1.6,anon_subject_48,659f04805339f753c1b65235,65a05a84c58774cde45fed65,0.419133092128984,session-65a05b7603cc7,prompt,,,
,"
  <div style=""font-size:20px;"">
      <p>Your response has been logged.</p>
  </div>
  ",,html-keyboard-response,57.0,177507.0,0.0-3.0-1.7,anon_subject_48,659f04805339f753c1b65235,65a05a84c58774cde45fed65,0.419133092128984,session-65a05b7603cc7,prompt,,,
,"
  <div style=""font-size:20px;"">
      <p>Your response has been logged.</p>
  </div>
  ",,html-keyboard-response,59.0,179798.0,0.0-3.0-1.8,anon_subject_48,659f04805339f753c1b65235,65a05a84c58774cde45fed65,0.419133092128984,session-65a05b7603cc7,prompt,,,
,"
  <div style=""font-size:20px;"">
      <p>Your response has been logged.</p>
  </div>
  ",,html-keyboard-response,61.0,183145.0,0.0-3.0-1.9,anon_subject_48,659f04805339f753c1b65235,65a05a84c58774cde45fed65,0.419133092128984,session-65a05b7603cc7,prompt,,,
,"
  <div style=""font-size:20px;"">
      <p>Your response has been logged.</p>
  </div>
  ",,html-keyboard-response,63.0,185797.0,0.0-3.0-1.10,anon_subject_48,659f04805339f753c1b65235,65a05a84c58774cde45fed65,0.419133092128984,session-65a05b7603cc7,prompt,,,
,"
  <div style=""font-size:20px;"">
      <p>Your response has been logged.</p>
  </div>
  ",,html-keyboard-response,65.0,189556.0,0.0-3.0-1.11,anon_subject_48,659f04805339f753c1b65235,65a05a84c58774cde45fed65,0.419133092128984,session-65a05b7603cc7,prompt,,,
,"
  <div style=""font-size:20px;"">
      <p>Your response has been logged.</p>
  </div>
  ",,html-keyboard-response,67.0,195218.0,0.0-3.0-1.12,anon_subject_48,659f04805339f753c1b65235,65a05a84c58774cde45fed65,0.419133092128984,session-65a05b7603cc7,prompt,,,
,"
  <div style=""font-size:20px;"">
      <p>Your response has been logged.</p>
  </div>
  ",,html-keyboard-response,69.0,198087.0,0.0-3.0-1.13,anon_subject_48,659f04805339f753c1b65235,65a05a84c58774cde45fed65,0.419133092128984,session-65a05b7603cc7,prompt,,,
,"
  <div style=""font-size:20px;"">
      <p>Your response has been logged.</p>
  </div>
  ",,html-keyboard-response,71.0,201087.0,0.0-3.0-1.14,anon_subject_48,659f04805339f753c1b65235,65a05a84c58774cde45fed65,0.419133092128984,session-65a05b7603cc7,prompt,,,
,"
  <div style=""font-size:20px;"">
      <p>Your response has been logged.</p>
  </div>
  ",,html-keyboard-response,73.0,204779.0,0.0-3.0-1.15,anon_subject_48,659f04805339f753c1b65235,65a05a84c58774cde45fed65,0.419133092128984,session-65a05b7603cc7,prompt,,,
,"
  <div style=""font-size:20px;"">
      <p>Your response has been logged.</p>
  </div>
  ",,html-keyboard-response,75.0,207297.0,0.0-3.0-1.16,anon_subject_48,659f04805339f753c1b65235,65a05a84c58774cde45fed65,0.419133092128984,session-65a05b7603cc7,prompt,,,
,"
  <div style=""font-size:20px;"">
      <p>Your response has been logged.</p>
  </div>
  ",,html-keyboard-response,77.0,210980.0,0.0-3.0-1.17,anon_subject_48,659f04805339f753c1b65235,65a05a84c58774cde45fed65,0.419133092128984,session-65a05b7603cc7,prompt,,,
,,,,,,,,,,,session-65a05b7603cc7,,True,2024-01-11T21:19:49.544Z,gesture-beat-expt-pilot
5110.0,"
    <div class=""jspsych-content"" align=left style=""width:100%;text-align: left;"">
    <p>Congratulations, you finished the practice trials! Now we will move on to the experiment.</p>
    <p>Remember, your task is the following:
    <p>
    <ul>
      <li>Read each question carefully.</li>
      <li>Answer whether the thing in the question can or cannot be done, based on what is possible given the physical laws of the real world.</li>
      <li>You will answer by pressing the <b>""1""</b> key for YES, or the <b>""0""</b> key for NO.</li>
      <li>Respond as quickly as you can.</li>
    </ul>
    <br>
  <p>Press SPACEBAR to begin the experiment.</p>
  </div>", ,html-keyboard-response,9.0,56513.0,0.0-2.0,anon_subject_75,659f04805339f753c1b65235,65a0478029b65b56eb97c721,0.27540834490166843,session-65a04919e5681,,,,
,"
  <div style=""font-size:20px;"">
      <p>Your response has been logged.</p>
  </div>
  ",,html-keyboard-response,11.0,59527.0,0.0-3.0-1.0,anon_subject_75,659f04805339f753c1b65235,65a0478029b65b56eb97c721,0.27540834490166843,session-65a04919e5681,prompt,,,
,"
  <div style=""font-size:20px;"">
      <p>Your response has been logged.</p>
  </div>
  ",,html-keyboard-response,13.0,62431.0,0.0-3.0-1.1,anon_subject_75,659f04805339f753c1b65235,65a0478029b65b56eb97c721,0.27540834490166843,session-65a04919e5681,prompt,,,
,"
  <div style=""font-size:20px;"">
      <p>Your response has been logged.</p>
  </div>
  ",,html-keyboard-response,15.0,64982.0,0.0-3.0-1.2,anon_subject_75,659f04805339f753c1b65235,65a0478029b65b56eb97c721,0.27540834490166843,session-65a04919e5681,prompt,,,
,"
  <div style=""font-size:20px;"">
      <p>Your response has been logged.</p>
  </div>
  ",,html-keyboard-response,17.0,68233.0,0.0-3.0-1.3,anon_subject_75,659f04805339f753c1b65235,65a0478029b65b56eb97c721,0.27540834490166843,session-65a04919e5681,prompt,,,
,"
  <div style=""font-size:20px;"">
      <p>Your response has been logged.</p>
  </div>
  ",,html-keyboard-response,19.0,73767.0,0.0-3.0-1.4,anon_subject_75,659f04805339f753c1b65235,65a0478029b65b56eb97c721,0.27540834490166843,session-65a04919e5681,prompt,,,
,"
  <div style=""font-size:20px;"">
      <p>Your response has been logged.</p>
  </div>
  ",,html-keyboard-response,21.0,77277.0,0.0-3.0-1.5,anon_subject_75,659f04805339f753c1b65235,65a0478029b65b56eb97c721,0.27540834490166843,session-65a04919e5681,prompt,,,
,"
  <div style=""font-size:20px;"">
      <p>Your response has been logged.</p>
  </div>
  ",,html-keyboard-response,23.0,80188.0,0.0-3.0-1.6,anon_subject_75,659f04805339f753c1b65235,65a0478029b65b56eb97c721,0.27540834490166843,session-65a04919e5681,prompt,,,
,"
  <div style=""font-size:20px;"">
      <p>Your response has been logged.</p>
  </div>
  ",,html-keyboard-response,25.0,82959.0,0.0-3.0-1.7,anon_subject_75,659f04805339f753c1b65235,65a0478029b65b56eb97c721,0.27540834490166843,session-65a04919e5681,prompt,,,
,"
  <div style=""font-size:20px;"">
      <p>Your response has been logged.</p>
  </div>
  ",,html-keyboard-response,27.0,86306.0,0.0-3.0-1.8,anon_subject_75,659f04805339f753c1b65235,65a0478029b65b56eb97c721,0.27540834490166843,session-65a04919e5681,prompt,,,
,"
  <div style=""font-size:20px;"">
      <p>Your response has been logged.</p>
  </div>
  ",,html-keyboard-response,29.0,91163.0,0.0-3.0-1.9,anon_subject_75,659f04805339f753c1b65235,65a0478029b65b56eb97c721,0.27540834490166843,session-65a04919e5681,prompt,,,
,"
  <div style=""font-size:20px;"">
      <p>Your response has been logged.</p>
  </div>
  ",,html-keyboard-response,31.0,98409.0,0.0-3.0-1.10,anon_subject_75,659f04805339f753c1b65235,65a0478029b65b56eb97c721,0.27540834490166843,session-65a04919e5681,prompt,,,
,"
  <div style=""font-size:20px;"">
      <p>Your response has been logged.</p>
  </div>
  ",,html-keyboard-response,33.0,102977.0,0.0-3.0-1.11,anon_subject_75,659f04805339f753c1b65235,65a0478029b65b56eb97c721,0.27540834490166843,session-65a04919e5681,prompt,,,
,"
  <div style=""font-size:20px;"">
      <p>Your response has been logged.</p>
  </div>
  ",,html-keyboard-response,35.0,108540.0,0.0-3.0-1.12,anon_subject_75,659f04805339f753c1b65235,65a0478029b65b56eb97c721,0.27540834490166843,session-65a04919e5681,prompt,,,
,"
  <div style=""font-size:20px;"">
      <p>Your response has been logged.</p>
  </div>
  ",,html-keyboard-response,37.0,111460.0,0.0-3.0-1.13,anon_subject_75,659f04805339f753c1b65235,65a0478029b65b56eb97c721,0.27540834490166843,session-65a04919e5681,prompt,,,
,"
  <div style=""font-size:20px;"">
      <p>Your response has been logged.</p>
  </div>
  ",,html-keyboard-response,39.0,113982.0,0.0-3.0-1.14,anon_subject_75,659f04805339f753c1b65235,65a0478029b65b56eb97c721,0.27540834490166843,session-65a04919e5681,prompt,,,
,"
  <div style=""font-size:20px;"">
      <p>Your response has been logged.</p>
  </div>
  ",,html-keyboard-response,41.0,119029.0,0.0-3.0-1.15,anon_subject_75,659f04805339f753c1b65235,65a0478029b65b56eb97c721,0.27540834490166843,session-65a04919e5681,prompt,,,
,"
  <div style=""font-size:20px;"">
      <p>Your response has been logged.</p>
  </div>
  ",,html-keyboard-response,43.0,129356.0,0.0-3.0-1.16,anon_subject_75,659f04805339f753c1b65235,65a0478029b65b56eb97c721,0.27540834490166843,session-65a04919e5681,prompt,,,
,"
  <div style=""font-size:20px;"">
      <p>Your response has been logged.</p>
  </div>
  ",,html-keyboard-response,45.0,140685.0,0.0-3.0-1.17,anon_subject_75,659f04805339f753c1b65235,65a0478029b65b56eb97c721,0.27540834490166843,session-65a04919e5681,prompt,,,
,,,,,,,,,,,session-65a04919e5681,,True,2024-01-11T20:01:29.630Z,gesture-beat-expt-pilot
3893.0,"
    <div class=""jspsych-content"" align=left style=""width:100%;text-align: left;"">
    <p>Congratulations, you finished the practice trials! Now we will move on to the experiment.</p>
    <p>Remember, your task is the following:
    <p>
    <ul>
      <li>Read each question carefully.</li>
      <li>Answer whether the thing in the question can or cannot be done, based on what is possible given the physical laws of the real world.</li>
      <li>You will answer by pressing the <b>""1""</b> key for YES, or the <b>""0""</b> key for NO.</li>
      <li>Respond as quickly as you can.</li>
    </ul>
    <br>
  <p>Press SPACEBAR to begin the experiment.</p>
  </div>", ,html-keyboard-response,9.0,38509.0,0.0-2.0,anon_subject_51,659f04805339f753c1b65235,65a03fae15177d3861dbe570,0.37630558641665357,session-65a04040ce87a,,,,
,"
  <div style=""font-size:20px;"">
      <p>Your response has been logged.</p>
  </div>
  ",,html-keyboard-response,11.0,41827.0,0.0-3.0-1.0,anon_subject_51,659f04805339f753c1b65235,65a03fae15177d3861dbe570,0.37630558641665357,session-65a04040ce87a,prompt,,,
,"
  <div style=""font-size:20px;"">
      <p>Your response has been logged.</p>
  </div>
  ",,html-keyboard-response,13.0,45403.0,0.0-3.0-1.1,anon_subject_51,659f04805339f753c1b65235,65a03fae15177d3861dbe570,0.37630558641665357,session-65a04040ce87a,prompt,,,
,"
  <div style=""font-size:20px;"">
      <p>Your response has been logged.</p>
  </div>
  ",,html-keyboard-response,15.0,51557.0,0.0-3.0-1.2,anon_subject_51,659f04805339f753c1b65235,65a03fae15177d3861dbe570,0.37630558641665357,session-65a04040ce87a,prompt,,,
,"
  <div style=""font-size:20px;"">
      <p>Your response has been logged.</p>
  </div>
  ",,html-keyboard-response,17.0,55878.0,0.0-3.0-1.3,anon_subject_51,659f04805339f753c1b65235,65a03fae15177d3861dbe570,0.37630558641665357,session-65a04040ce87a,prompt,,,
,"
  <div style=""font-size:20px;"">
      <p>Your response has been logged.</p>
  </div>
  ",,html-keyboard-response,19.0,59748.0,0.0-3.0-1.4,anon_subject_51,659f04805339f753c1b65235,65a03fae15177d3861dbe570,0.37630558641665357,session-65a04040ce87a,prompt,,,
,"
  <div style=""font-size:20px;"">
      <p>Your response has been logged.</p>
  </div>
  ",,html-keyboard-response,21.0,63460.0,0.0-3.0-1.5,anon_subject_51,659f04805339f753c1b65235,65a03fae15177d3861dbe570,0.37630558641665357,session-65a04040ce87a,prompt,,,
,"
  <div style=""font-size:20px;"">
      <p>Your response has been logged.</p>
  </div>
  ",,html-keyboard-response,23.0,67610.0,0.0-3.0-1.6,anon_subject_51,659f04805339f753c1b65235,65a03fae15177d3861dbe570,0.37630558641665357,session-65a04040ce87a,prompt,,,
,"
  <div style=""font-size:20px;"">
      <p>Your response has been logged.</p>
  </div>
  ",,html-keyboard-response,25.0,73694.0,0.0-3.0-1.7,anon_subject_51,659f04805339f753c1b65235,65a03fae15177d3861dbe570,0.37630558641665357,session-65a04040ce87a,prompt,,,
,"
  <div style=""font-size:20px;"">
      <p>Your response has been logged.</p>
  </div>
  ",,html-keyboard-response,27.0,79026.0,0.0-3.0-1.8,anon_subject_51,659f04805339f753c1b65235,65a03fae15177d3861dbe570,0.37630558641665357,session-65a04040ce87a,prompt,,,
,"
  <div style=""font-size:20px;"">
      <p>Your response has been logged.</p>
  </div>
  ",,html-keyboard-response,29.0,82721.0,0.0-3.0-1.9,anon_subject_51,659f04805339f753c1b65235,65a03fae15177d3861dbe570,0.37630558641665357,session-65a04040ce87a,prompt,,,
,"
  <div style=""font-size:20px;"">
      <p>Your response has been logged.</p>
  </div>
  ",,html-keyboard-response,31.0,86036.0,0.0-3.0-1.10,anon_subject_51,659f04805339f753c1b65235,65a03fae15177d3861dbe570,0.37630558641665357,session-65a04040ce87a,prompt,,,
,"
  <div style=""font-size:20px;"">
      <p>Your response has been logged.</p>
  </div>
  ",,html-keyboard-response,33.0,89136.0,0.0-3.0-1.11,anon_subject_51,659f04805339f753c1b65235,65a03fae15177d3861dbe570,0.37630558641665357,session-65a04040ce87a,prompt,,,
,"
  <div style=""font-size:20px;"">
      <p>Your response has been logged.</p>
  </div>
  ",,html-keyboard-response,35.0,91793.0,0.0-3.0-1.12,anon_subject_51,659f04805339f753c1b65235,65a03fae15177d3861dbe570,0.37630558641665357,session-65a04040ce87a,prompt,,,
,"
  <div style=""font-size:20px;"">
      <p>Your response has been logged.</p>
  </div>
  ",,html-keyboard-response,37.0,94653.0,0.0-3.0-1.13,anon_subject_51,659f04805339f753c1b65235,65a03fae15177d3861dbe570,0.37630558641665357,session-65a04040ce87a,prompt,,,
,"
  <div style=""font-size:20px;"">
      <p>Your response has been logged.</p>
  </div>
  ",,html-keyboard-response,39.0,99907.0,0.0-3.0-1.14,anon_subject_51,659f04805339f753c1b65235,65a03fae15177d3861dbe570,0.37630558641665357,session-65a04040ce87a,prompt,,,
,"
  <div style=""font-size:20px;"">
      <p>Your response has been logged.</p>
  </div>
  ",,html-keyboard-response,41.0,102812.0,0.0-3.0-1.15,anon_subject_51,659f04805339f753c1b65235,65a03fae15177d3861dbe570,0.37630558641665357,session-65a04040ce87a,prompt,,,
,"
  <div style=""font-size:20px;"">
      <p>Your response has been logged.</p>
  </div>
  ",,html-keyboard-response,43.0,106264.0,0.0-3.0-1.16,anon_subject_51,659f04805339f753c1b65235,65a03fae15177d3861dbe570,0.37630558641665357,session-65a04040ce87a,prompt,,,
,"
  <div style=""font-size:20px;"">
      <p>Your response has been logged.</p>
  </div>
  ",,html-keyboard-response,45.0,109857.0,0.0-3.0-1.17,anon_subject_51,659f04805339f753c1b65235,65a03fae15177d3861dbe570,0.37630558641665357,session-65a04040ce87a,prompt,,,
,,,,,,,,,,,session-65a04040ce87a,,True,2024-01-11T19:23:45.608Z,gesture-beat-expt-pilot
4547.0,"
    <div class=""jspsych-content"" align=left style=""width:100%;text-align: left;"">
    <p>Congratulations, you finished the practice trials! Now we will move on to the experiment.</p>
    <p>Remember, your task is the following:
    <p>
    <ul>
      <li>Read each question carefully.</li>
      <li>Answer whether the thing in the question can or cannot be done, based on what is possible given the physical laws of the real world.</li>
      <li>You will answer by pressing the <b>""1""</b> key for YES, or the <b>""0""</b> key for NO.</li>
      <li>Respond as quickly as you can.</li>
    </ul>
    <br>
  <p>Press SPACEBAR to begin the experiment.</p>
  </div>", ,html-keyboard-response,17.0,187130.0,0.0-2.0,anon_subject_192,659f04805339f753c1b65235,65a02a8b15177d3861dbe02e,0.7261492057711199,session-65a02c23dc123,,,,
,"
  <div style=""font-size:20px;"">
      <p>Your response has been logged.</p>
  </div>
  ",,html-keyboard-response,19.0,196151.0,0.0-3.0-1.0,anon_subject_192,659f04805339f753c1b65235,65a02a8b15177d3861dbe02e,0.7261492057711199,session-65a02c23dc123,prompt,,,
,"
  <div style=""font-size:20px;"">
      <p>Your response has been logged.</p>
  </div>
  ",,html-keyboard-response,21.0,216065.0,0.0-3.0-1.1,anon_subject_192,659f04805339f753c1b65235,65a02a8b15177d3861dbe02e,0.7261492057711199,session-65a02c23dc123,prompt,,,
,"
  <div style=""font-size:20px;"">
      <p>Your response has been logged.</p>
  </div>
  ",,html-keyboard-response,23.0,226360.0,0.0-3.0-1.2,anon_subject_192,659f04805339f753c1b65235,65a02a8b15177d3861dbe02e,0.7261492057711199,session-65a02c23dc123,prompt,,,
,"
  <div style=""font-size:20px;"">
      <p>Your response has been logged.</p>
  </div>
  ",,html-keyboard-response,25.0,234638.0,0.0-3.0-1.3,anon_subject_192,659f04805339f753c1b65235,65a02a8b15177d3861dbe02e,0.7261492057711199,session-65a02c23dc123,prompt,,,
,"
  <div style=""font-size:20px;"">
      <p>Your response has been logged.</p>
  </div>
  ",,html-keyboard-response,27.0,240368.0,0.0-3.0-1.4,anon_subject_192,659f04805339f753c1b65235,65a02a8b15177d3861dbe02e,0.7261492057711199,session-65a02c23dc123,prompt,,,
,"
  <div style=""font-size:20px;"">
      <p>Your response has been logged.</p>
  </div>
  ",,html-keyboard-response,29.0,247889.0,0.0-3.0-1.5,anon_subject_192,659f04805339f753c1b65235,65a02a8b15177d3861dbe02e,0.7261492057711199,session-65a02c23dc123,prompt,,,
,"
  <div style=""font-size:20px;"">
      <p>Your response has been logged.</p>
  </div>
  ",,html-keyboard-response,31.0,269395.0,0.0-3.0-1.6,anon_subject_192,659f04805339f753c1b65235,65a02a8b15177d3861dbe02e,0.7261492057711199,session-65a02c23dc123,prompt,,,
,"
  <div style=""font-size:20px;"">
      <p>Your response has been logged.</p>
  </div>
  ",,html-keyboard-response,33.0,273856.0,0.0-3.0-1.7,anon_subject_192,659f04805339f753c1b65235,65a02a8b15177d3861dbe02e,0.7261492057711199,session-65a02c23dc123,prompt,,,
,"
  <div style=""font-size:20px;"">
      <p>Your response has been logged.</p>
  </div>
  ",,html-keyboard-response,35.0,277602.0,0.0-3.0-1.8,anon_subject_192,659f04805339f753c1b65235,65a02a8b15177d3861dbe02e,0.7261492057711199,session-65a02c23dc123,prompt,,,
,"
  <div style=""font-size:20px;"">
      <p>Your response has been logged.</p>
  </div>
  ",,html-keyboard-response,37.0,281643.0,0.0-3.0-1.9,anon_subject_192,659f04805339f753c1b65235,65a02a8b15177d3861dbe02e,0.7261492057711199,session-65a02c23dc123,prompt,,,
,"
  <div style=""font-size:20px;"">
      <p>Your response has been logged.</p>
  </div>
  ",,html-keyboard-response,39.0,285869.0,0.0-3.0-1.10,anon_subject_192,659f04805339f753c1b65235,65a02a8b15177d3861dbe02e,0.7261492057711199,session-65a02c23dc123,prompt,,,
,"
  <div style=""font-size:20px;"">
      <p>Your response has been logged.</p>
  </div>
  ",,html-keyboard-response,41.0,294769.0,0.0-3.0-1.11,anon_subject_192,659f04805339f753c1b65235,65a02a8b15177d3861dbe02e,0.7261492057711199,session-65a02c23dc123,prompt,,,
,"
  <div style=""font-size:20px;"">
      <p>Your response has been logged.</p>
  </div>
  ",,html-keyboard-response,43.0,298886.0,0.0-3.0-1.12,anon_subject_192,659f04805339f753c1b65235,65a02a8b15177d3861dbe02e,0.7261492057711199,session-65a02c23dc123,prompt,,,
,"
  <div style=""font-size:20px;"">
      <p>Your response has been logged.</p>
  </div>
  ",,html-keyboard-response,45.0,307936.0,0.0-3.0-1.13,anon_subject_192,659f04805339f753c1b65235,65a02a8b15177d3861dbe02e,0.7261492057711199,session-65a02c23dc123,prompt,,,
,"
  <div style=""font-size:20px;"">
      <p>Your response has been logged.</p>
  </div>
  ",,html-keyboard-response,47.0,312228.0,0.0-3.0-1.14,anon_subject_192,659f04805339f753c1b65235,65a02a8b15177d3861dbe02e,0.7261492057711199,session-65a02c23dc123,prompt,,,
,"
  <div style=""font-size:20px;"">
      <p>Your response has been logged.</p>
  </div>
  ",,html-keyboard-response,49.0,317386.0,0.0-3.0-1.15,anon_subject_192,659f04805339f753c1b65235,65a02a8b15177d3861dbe02e,0.7261492057711199,session-65a02c23dc123,prompt,,,
,"
  <div style=""font-size:20px;"">
      <p>Your response has been logged.</p>
  </div>
  ",,html-keyboard-response,51.0,323259.0,0.0-3.0-1.16,anon_subject_192,659f04805339f753c1b65235,65a02a8b15177d3861dbe02e,0.7261492057711199,session-65a02c23dc123,prompt,,,
,"
  <div style=""font-size:20px;"">
      <p>Your response has been logged.</p>
  </div>
  ",,html-keyboard-response,53.0,330615.0,0.0-3.0-1.17,anon_subject_192,659f04805339f753c1b65235,65a02a8b15177d3861dbe02e,0.7261492057711199,session-65a02c23dc123,prompt,,,
,,,,,,,,,,,session-65a02c23dc123,,True,2024-01-11T17:57:51.569Z,gesture-beat-expt-pilot
3166.0,"
    <div class=""jspsych-content"" align=left style=""width:100%;text-align: left;"">
    <p>Congratulations, you finished the practice trials! Now we will move on to the experiment.</p>
    <p>Remember, your task is the following:
    <p>
    <ul>
      <li>Read each question carefully.</li>
      <li>Answer whether the thing in the question can or cannot be done, based on what is possible given the physical laws of the real world.</li>
      <li>You will answer by pressing the <b>""1""</b> key for YES, or the <b>""0""</b> key for NO.</li>
      <li>Respond as quickly as you can.</li>
    </ul>
    <br>
  <p>Press SPACEBAR to begin the experiment.</p>
  </div>", ,html-keyboard-response,9.0,29193.0,0.0-2.0,anon_subject_69,659f04805339f753c1b65235,65a0471c5068c51fec46d7ee,0.492064134132981,session-65a047aba18b0,,,,
,"
  <div style=""font-size:20px;"">
      <p>Your response has been logged.</p>
  </div>
  ",,html-keyboard-response,11.0,32260.0,0.0-3.0-1.0,anon_subject_69,659f04805339f753c1b65235,65a0471c5068c51fec46d7ee,0.492064134132981,session-65a047aba18b0,prompt,,,
,"
  <div style=""font-size:20px;"">
      <p>Your response has been logged.</p>
  </div>
  ",,html-keyboard-response,13.0,35610.0,0.0-3.0-1.1,anon_subject_69,659f04805339f753c1b65235,65a0471c5068c51fec46d7ee,0.492064134132981,session-65a047aba18b0,prompt,,,
,"
  <div style=""font-size:20px;"">
      <p>Your response has been logged.</p>
  </div>
  ",,html-keyboard-response,15.0,38176.0,0.0-3.0-1.2,anon_subject_69,659f04805339f753c1b65235,65a0471c5068c51fec46d7ee,0.492064134132981,session-65a047aba18b0,prompt,,,
,"
  <div style=""font-size:20px;"">
      <p>Your response has been logged.</p>
  </div>
  ",,html-keyboard-response,17.0,40456.0,0.0-3.0-1.3,anon_subject_69,659f04805339f753c1b65235,65a0471c5068c51fec46d7ee,0.492064134132981,session-65a047aba18b0,prompt,,,
,"
  <div style=""font-size:20px;"">
      <p>Your response has been logged.</p>
  </div>
  ",,html-keyboard-response,19.0,43001.0,0.0-3.0-1.4,anon_subject_69,659f04805339f753c1b65235,65a0471c5068c51fec46d7ee,0.492064134132981,session-65a047aba18b0,prompt,,,
,"
  <div style=""font-size:20px;"">
      <p>Your response has been logged.</p>
  </div>
  ",,html-keyboard-response,21.0,45888.0,0.0-3.0-1.5,anon_subject_69,659f04805339f753c1b65235,65a0471c5068c51fec46d7ee,0.492064134132981,session-65a047aba18b0,prompt,,,
,"
  <div style=""font-size:20px;"">
      <p>Your response has been logged.</p>
  </div>
  ",,html-keyboard-response,23.0,49867.0,0.0-3.0-1.6,anon_subject_69,659f04805339f753c1b65235,65a0471c5068c51fec46d7ee,0.492064134132981,session-65a047aba18b0,prompt,,,
,"
  <div style=""font-size:20px;"">
      <p>Your response has been logged.</p>
  </div>
  ",,html-keyboard-response,25.0,52352.0,0.0-3.0-1.7,anon_subject_69,659f04805339f753c1b65235,65a0471c5068c51fec46d7ee,0.492064134132981,session-65a047aba18b0,prompt,,,
,"
  <div style=""font-size:20px;"">
      <p>Your response has been logged.</p>
  </div>
  ",,html-keyboard-response,27.0,55821.0,0.0-3.0-1.8,anon_subject_69,659f04805339f753c1b65235,65a0471c5068c51fec46d7ee,0.492064134132981,session-65a047aba18b0,prompt,,,
,"
  <div style=""font-size:20px;"">
      <p>Your response has been logged.</p>
  </div>
  ",,html-keyboard-response,29.0,61055.0,0.0-3.0-1.9,anon_subject_69,659f04805339f753c1b65235,65a0471c5068c51fec46d7ee,0.492064134132981,session-65a047aba18b0,prompt,,,
,"
  <div style=""font-size:20px;"">
      <p>Your response has been logged.</p>
  </div>
  ",,html-keyboard-response,31.0,65670.0,0.0-3.0-1.10,anon_subject_69,659f04805339f753c1b65235,65a0471c5068c51fec46d7ee,0.492064134132981,session-65a047aba18b0,prompt,,,
,"
  <div style=""font-size:20px;"">
      <p>Your response has been logged.</p>
  </div>
  ",,html-keyboard-response,33.0,69197.0,0.0-3.0-1.11,anon_subject_69,659f04805339f753c1b65235,65a0471c5068c51fec46d7ee,0.492064134132981,session-65a047aba18b0,prompt,,,
,"
  <div style=""font-size:20px;"">
      <p>Your response has been logged.</p>
  </div>
  ",,html-keyboard-response,35.0,71307.0,0.0-3.0-1.12,anon_subject_69,659f04805339f753c1b65235,65a0471c5068c51fec46d7ee,0.492064134132981,session-65a047aba18b0,prompt,,,
,"
  <div style=""font-size:20px;"">
      <p>Your response has been logged.</p>
  </div>
  ",,html-keyboard-response,37.0,73916.0,0.0-3.0-1.13,anon_subject_69,659f04805339f753c1b65235,65a0471c5068c51fec46d7ee,0.492064134132981,session-65a047aba18b0,prompt,,,
,"
  <div style=""font-size:20px;"">
      <p>Your response has been logged.</p>
  </div>
  ",,html-keyboard-response,39.0,80824.0,0.0-3.0-1.14,anon_subject_69,659f04805339f753c1b65235,65a0471c5068c51fec46d7ee,0.492064134132981,session-65a047aba18b0,prompt,,,
,"
  <div style=""font-size:20px;"">
      <p>Your response has been logged.</p>
  </div>
  ",,html-keyboard-response,41.0,83972.0,0.0-3.0-1.15,anon_subject_69,659f04805339f753c1b65235,65a0471c5068c51fec46d7ee,0.492064134132981,session-65a047aba18b0,prompt,,,
,"
  <div style=""font-size:20px;"">
      <p>Your response has been logged.</p>
  </div>
  ",,html-keyboard-response,43.0,86588.0,0.0-3.0-1.16,anon_subject_69,659f04805339f753c1b65235,65a0471c5068c51fec46d7ee,0.492064134132981,session-65a047aba18b0,prompt,,,
,"
  <div style=""font-size:20px;"">
      <p>Your response has been logged.</p>
  </div>
  ",,html-keyboard-response,45.0,89320.0,0.0-3.0-1.17,anon_subject_69,659f04805339f753c1b65235,65a0471c5068c51fec46d7ee,0.492064134132981,session-65a047aba18b0,prompt,,,
,,,,,,,,,,,session-65a047aba18b0,,True,2024-01-11T19:55:23.109Z,gesture-beat-expt-pilot
3212.0,"
    <div class=""jspsych-content"" align=left style=""width:100%;text-align: left;"">
    <p>Congratulations, you finished the practice trials! Now we will move on to the experiment.</p>
    <p>Remember, your task is the following:
    <p>
    <ul>
      <li>Read each question carefully.</li>
      <li>Answer whether the thing in the question can or cannot be done, based on what is possible given the physical laws of the real world.</li>
      <li>You will answer by pressing the <b>""1""</b> key for YES, or the <b>""0""</b> key for NO.</li>
      <li>Respond as quickly as you can.</li>
    </ul>
    <br>
  <p>Press SPACEBAR to begin the experiment.</p>
  </div>", ,html-keyboard-response,9.0,25230.0,0.0-2.0,anon_subject_149,659f04805339f753c1b65235,65a0473a461451c85ed4f43e,0.9785815176210615,session-65a0479944049,,,,
,"
  <div style=""font-size:20px;"">
      <p>Your response has been logged.</p>
  </div>
  ",,html-keyboard-response,11.0,28304.0,0.0-3.0-1.0,anon_subject_149,659f04805339f753c1b65235,65a0473a461451c85ed4f43e,0.9785815176210615,session-65a0479944049,prompt,,,
,"
  <div style=""font-size:20px;"">
      <p>Your response has been logged.</p>
  </div>
  ",,html-keyboard-response,13.0,30832.0,0.0-3.0-1.1,anon_subject_149,659f04805339f753c1b65235,65a0473a461451c85ed4f43e,0.9785815176210615,session-65a0479944049,prompt,,,
,"
  <div style=""font-size:20px;"">
      <p>Your response has been logged.</p>
  </div>
  ",,html-keyboard-response,15.0,33360.0,0.0-3.0-1.2,anon_subject_149,659f04805339f753c1b65235,65a0473a461451c85ed4f43e,0.9785815176210615,session-65a0479944049,prompt,,,
,"
  <div style=""font-size:20px;"">
      <p>Your response has been logged.</p>
  </div>
  ",,html-keyboard-response,17.0,35875.0,0.0-3.0-1.3,anon_subject_149,659f04805339f753c1b65235,65a0473a461451c85ed4f43e,0.9785815176210615,session-65a0479944049,prompt,,,
,"
  <div style=""font-size:20px;"">
      <p>Your response has been logged.</p>
  </div>
  ",,html-keyboard-response,19.0,38023.0,0.0-3.0-1.4,anon_subject_149,659f04805339f753c1b65235,65a0473a461451c85ed4f43e,0.9785815176210615,session-65a0479944049,prompt,,,
,"
  <div style=""font-size:20px;"">
      <p>Your response has been logged.</p>
  </div>
  ",,html-keyboard-response,21.0,40226.0,0.0-3.0-1.5,anon_subject_149,659f04805339f753c1b65235,65a0473a461451c85ed4f43e,0.9785815176210615,session-65a0479944049,prompt,,,
,"
  <div style=""font-size:20px;"">
      <p>Your response has been logged.</p>
  </div>
  ",,html-keyboard-response,23.0,44337.0,0.0-3.0-1.6,anon_subject_149,659f04805339f753c1b65235,65a0473a461451c85ed4f43e,0.9785815176210615,session-65a0479944049,prompt,,,
,"
  <div style=""font-size:20px;"">
      <p>Your response has been logged.</p>
  </div>
  ",,html-keyboard-response,25.0,46989.0,0.0-3.0-1.7,anon_subject_149,659f04805339f753c1b65235,65a0473a461451c85ed4f43e,0.9785815176210615,session-65a0479944049,prompt,,,
,"
  <div style=""font-size:20px;"">
      <p>Your response has been logged.</p>
  </div>
  ",,html-keyboard-response,27.0,50659.0,0.0-3.0-1.8,anon_subject_149,659f04805339f753c1b65235,65a0473a461451c85ed4f43e,0.9785815176210615,session-65a0479944049,prompt,,,
,"
  <div style=""font-size:20px;"">
      <p>Your response has been logged.</p>
  </div>
  ",,html-keyboard-response,29.0,53417.0,0.0-3.0-1.9,anon_subject_149,659f04805339f753c1b65235,65a0473a461451c85ed4f43e,0.9785815176210615,session-65a0479944049,prompt,,,
,"
  <div style=""font-size:20px;"">
      <p>Your response has been logged.</p>
  </div>
  ",,html-keyboard-response,31.0,56274.0,0.0-3.0-1.10,anon_subject_149,659f04805339f753c1b65235,65a0473a461451c85ed4f43e,0.9785815176210615,session-65a0479944049,prompt,,,
,"
  <div style=""font-size:20px;"">
      <p>Your response has been logged.</p>
  </div>
  ",,html-keyboard-response,33.0,59304.0,0.0-3.0-1.11,anon_subject_149,659f04805339f753c1b65235,65a0473a461451c85ed4f43e,0.9785815176210615,session-65a0479944049,prompt,,,
,"
  <div style=""font-size:20px;"">
      <p>Your response has been logged.</p>
  </div>
  ",,html-keyboard-response,35.0,62608.0,0.0-3.0-1.12,anon_subject_149,659f04805339f753c1b65235,65a0473a461451c85ed4f43e,0.9785815176210615,session-65a0479944049,prompt,,,
,"
  <div style=""font-size:20px;"">
      <p>Your response has been logged.</p>
  </div>
  ",,html-keyboard-response,37.0,65409.0,0.0-3.0-1.13,anon_subject_149,659f04805339f753c1b65235,65a0473a461451c85ed4f43e,0.9785815176210615,session-65a0479944049,prompt,,,
,"
  <div style=""font-size:20px;"">
      <p>Your response has been logged.</p>
  </div>
  ",,html-keyboard-response,39.0,67478.0,0.0-3.0-1.14,anon_subject_149,659f04805339f753c1b65235,65a0473a461451c85ed4f43e,0.9785815176210615,session-65a0479944049,prompt,,,
,"
  <div style=""font-size:20px;"">
      <p>Your response has been logged.</p>
  </div>
  ",,html-keyboard-response,41.0,70036.0,0.0-3.0-1.15,anon_subject_149,659f04805339f753c1b65235,65a0473a461451c85ed4f43e,0.9785815176210615,session-65a0479944049,prompt,,,
,"
  <div style=""font-size:20px;"">
      <p>Your response has been logged.</p>
  </div>
  ",,html-keyboard-response,43.0,72540.0,0.0-3.0-1.16,anon_subject_149,659f04805339f753c1b65235,65a0473a461451c85ed4f43e,0.9785815176210615,session-65a0479944049,prompt,,,
,"
  <div style=""font-size:20px;"">
      <p>Your response has been logged.</p>
  </div>
  ",,html-keyboard-response,45.0,75544.0,0.0-3.0-1.17,anon_subject_149,659f04805339f753c1b65235,65a0473a461451c85ed4f43e,0.9785815176210615,session-65a0479944049,prompt,,,
,,,,,,,,,,,session-65a0479944049,,True,2024-01-11T19:55:05.063Z,gesture-beat-expt-pilot
5625.0,"
    <div class=""jspsych-content"" align=left style=""width:100%;text-align: left;"">
    <p>Congratulations, you finished the practice trials! Now we will move on to the experiment.</p>
    <p>Remember, your task is the following:
    <p>
    <ul>
      <li>Read each question carefully.</li>
      <li>Answer whether the thing in the question can or cannot be done, based on what is possible given the physical laws of the real world.</li>
      <li>You will answer by pressing the <b>""1""</b> key for YES, or the <b>""0""</b> key for NO.</li>
      <li>Respond as quickly as you can.</li>
    </ul>
    <br>
  <p>Press SPACEBAR to begin the experiment.</p>
  </div>", ,html-keyboard-response,9.0,42697.0,0.0-2.0,anon_subject_122,659f04805339f753c1b65235,65a03fd56bac4df6251b8e9a,0.2970422426465522,session-65a0405d43889,,,,
,"
  <div style=""font-size:20px;"">
      <p>Your response has been logged.</p>
  </div>
  ",,html-keyboard-response,11.0,45926.0,0.0-3.0-1.0,anon_subject_122,659f04805339f753c1b65235,65a03fd56bac4df6251b8e9a,0.2970422426465522,session-65a0405d43889,prompt,,,
,"
  <div style=""font-size:20px;"">
      <p>Your response has been logged.</p>
  </div>
  ",,html-keyboard-response,13.0,49611.0,0.0-3.0-1.1,anon_subject_122,659f04805339f753c1b65235,65a03fd56bac4df6251b8e9a,0.2970422426465522,session-65a0405d43889,prompt,,,
,"
  <div style=""font-size:20px;"">
      <p>Your response has been logged.</p>
  </div>
  ",,html-keyboard-response,15.0,52717.0,0.0-3.0-1.2,anon_subject_122,659f04805339f753c1b65235,65a03fd56bac4df6251b8e9a,0.2970422426465522,session-65a0405d43889,prompt,,,
,"
  <div style=""font-size:20px;"">
      <p>Your response has been logged.</p>
  </div>
  ",,html-keyboard-response,17.0,58328.0,0.0-3.0-1.3,anon_subject_122,659f04805339f753c1b65235,65a03fd56bac4df6251b8e9a,0.2970422426465522,session-65a0405d43889,prompt,,,
,"
  <div style=""font-size:20px;"">
      <p>Your response has been logged.</p>
  </div>
  ",,html-keyboard-response,19.0,62550.0,0.0-3.0-1.4,anon_subject_122,659f04805339f753c1b65235,65a03fd56bac4df6251b8e9a,0.2970422426465522,session-65a0405d43889,prompt,,,
,"
  <div style=""font-size:20px;"">
      <p>Your response has been logged.</p>
  </div>
  ",,html-keyboard-response,21.0,68267.0,0.0-3.0-1.5,anon_subject_122,659f04805339f753c1b65235,65a03fd56bac4df6251b8e9a,0.2970422426465522,session-65a0405d43889,prompt,,,
,"
  <div style=""font-size:20px;"">
      <p>Your response has been logged.</p>
  </div>
  ",,html-keyboard-response,23.0,71062.0,0.0-3.0-1.6,anon_subject_122,659f04805339f753c1b65235,65a03fd56bac4df6251b8e9a,0.2970422426465522,session-65a0405d43889,prompt,,,
,"
  <div style=""font-size:20px;"">
      <p>Your response has been logged.</p>
  </div>
  ",,html-keyboard-response,25.0,74610.0,0.0-3.0-1.7,anon_subject_122,659f04805339f753c1b65235,65a03fd56bac4df6251b8e9a,0.2970422426465522,session-65a0405d43889,prompt,,,
,"
  <div style=""font-size:20px;"">
      <p>Your response has been logged.</p>
  </div>
  ",,html-keyboard-response,27.0,78140.0,0.0-3.0-1.8,anon_subject_122,659f04805339f753c1b65235,65a03fd56bac4df6251b8e9a,0.2970422426465522,session-65a0405d43889,prompt,,,
,"
  <div style=""font-size:20px;"">
      <p>Your response has been logged.</p>
  </div>
  ",,html-keyboard-response,29.0,81699.0,0.0-3.0-1.9,anon_subject_122,659f04805339f753c1b65235,65a03fd56bac4df6251b8e9a,0.2970422426465522,session-65a0405d43889,prompt,,,
,"
  <div style=""font-size:20px;"">
      <p>Your response has been logged.</p>
  </div>
  ",,html-keyboard-response,31.0,85952.0,0.0-3.0-1.10,anon_subject_122,659f04805339f753c1b65235,65a03fd56bac4df6251b8e9a,0.2970422426465522,session-65a0405d43889,prompt,,,
,"
  <div style=""font-size:20px;"">
      <p>Your response has been logged.</p>
  </div>
  ",,html-keyboard-response,33.0,88972.0,0.0-3.0-1.11,anon_subject_122,659f04805339f753c1b65235,65a03fd56bac4df6251b8e9a,0.2970422426465522,session-65a0405d43889,prompt,,,
,"
  <div style=""font-size:20px;"">
      <p>Your response has been logged.</p>
  </div>
  ",,html-keyboard-response,35.0,91999.0,0.0-3.0-1.12,anon_subject_122,659f04805339f753c1b65235,65a03fd56bac4df6251b8e9a,0.2970422426465522,session-65a0405d43889,prompt,,,
,"
  <div style=""font-size:20px;"">
      <p>Your response has been logged.</p>
  </div>
  ",,html-keyboard-response,37.0,95301.0,0.0-3.0-1.13,anon_subject_122,659f04805339f753c1b65235,65a03fd56bac4df6251b8e9a,0.2970422426465522,session-65a0405d43889,prompt,,,
,"
  <div style=""font-size:20px;"">
      <p>Your response has been logged.</p>
  </div>
  ",,html-keyboard-response,39.0,98696.0,0.0-3.0-1.14,anon_subject_122,659f04805339f753c1b65235,65a03fd56bac4df6251b8e9a,0.2970422426465522,session-65a0405d43889,prompt,,,
,"
  <div style=""font-size:20px;"">
      <p>Your response has been logged.</p>
  </div>
  ",,html-keyboard-response,41.0,103800.0,0.0-3.0-1.15,anon_subject_122,659f04805339f753c1b65235,65a03fd56bac4df6251b8e9a,0.2970422426465522,session-65a0405d43889,prompt,,,
,"
  <div style=""font-size:20px;"">
      <p>Your response has been logged.</p>
  </div>
  ",,html-keyboard-response,43.0,107454.0,0.0-3.0-1.16,anon_subject_122,659f04805339f753c1b65235,65a03fd56bac4df6251b8e9a,0.2970422426465522,session-65a0405d43889,prompt,,,
,"
  <div style=""font-size:20px;"">
      <p>Your response has been logged.</p>
  </div>
  ",,html-keyboard-response,45.0,111401.0,0.0-3.0-1.17,anon_subject_122,659f04805339f753c1b65235,65a03fd56bac4df6251b8e9a,0.2970422426465522,session-65a0405d43889,prompt,,,
,,,,,,,,,,,session-65a0405d43889,,True,2024-01-11T19:24:13.064Z,gesture-beat-expt-pilot
6661.0,"
    <div class=""jspsych-content"" align=left style=""width:100%;text-align: left;"">
    <p>Congratulations, you finished the practice trials! Now we will move on to the experiment.</p>
    <p>Remember, your task is the following:
    <p>
    <ul>
      <li>Read each question carefully.</li>
      <li>Answer whether the thing in the question can or cannot be done, based on what is possible given the physical laws of the real world.</li>
      <li>You will answer by pressing the <b>""1""</b> key for YES, or the <b>""0""</b> key for NO.</li>
      <li>Respond as quickly as you can.</li>
    </ul>
    <br>
  <p>Press SPACEBAR to begin the experiment.</p>
  </div>", ,html-keyboard-response,9.0,36823.0,0.0-2.0,anon_subject_260,659f04805339f753c1b65235,65a05a7e0f99dc411697c9da,0.41642503139060016,session-65a05ae85fd46,,,,
,"
  <div style=""font-size:20px;"">
      <p>Your response has been logged.</p>
  </div>
  ",,html-keyboard-response,11.0,39286.0,0.0-3.0-1.0,anon_subject_260,659f04805339f753c1b65235,65a05a7e0f99dc411697c9da,0.41642503139060016,session-65a05ae85fd46,prompt,,,
,"
  <div style=""font-size:20px;"">
      <p>Your response has been logged.</p>
  </div>
  ",,html-keyboard-response,13.0,41782.0,0.0-3.0-1.1,anon_subject_260,659f04805339f753c1b65235,65a05a7e0f99dc411697c9da,0.41642503139060016,session-65a05ae85fd46,prompt,,,
,"
  <div style=""font-size:20px;"">
      <p>Your response has been logged.</p>
  </div>
  ",,html-keyboard-response,15.0,43937.0,0.0-3.0-1.2,anon_subject_260,659f04805339f753c1b65235,65a05a7e0f99dc411697c9da,0.41642503139060016,session-65a05ae85fd46,prompt,,,
,"
  <div style=""font-size:20px;"">
      <p>Your response has been logged.</p>
  </div>
  ",,html-keyboard-response,17.0,46709.0,0.0-3.0-1.3,anon_subject_260,659f04805339f753c1b65235,65a05a7e0f99dc411697c9da,0.41642503139060016,session-65a05ae85fd46,prompt,,,
,"
  <div style=""font-size:20px;"">
      <p>Your response has been logged.</p>
  </div>
  ",,html-keyboard-response,19.0,49556.0,0.0-3.0-1.4,anon_subject_260,659f04805339f753c1b65235,65a05a7e0f99dc411697c9da,0.41642503139060016,session-65a05ae85fd46,prompt,,,
,"
  <div style=""font-size:20px;"">
      <p>Your response has been logged.</p>
  </div>
  ",,html-keyboard-response,21.0,52195.0,0.0-3.0-1.5,anon_subject_260,659f04805339f753c1b65235,65a05a7e0f99dc411697c9da,0.41642503139060016,session-65a05ae85fd46,prompt,,,
,"
  <div style=""font-size:20px;"">
      <p>Your response has been logged.</p>
  </div>
  ",,html-keyboard-response,23.0,54234.0,0.0-3.0-1.6,anon_subject_260,659f04805339f753c1b65235,65a05a7e0f99dc411697c9da,0.41642503139060016,session-65a05ae85fd46,prompt,,,
,"
  <div style=""font-size:20px;"">
      <p>Your response has been logged.</p>
  </div>
  ",,html-keyboard-response,25.0,56897.0,0.0-3.0-1.7,anon_subject_260,659f04805339f753c1b65235,65a05a7e0f99dc411697c9da,0.41642503139060016,session-65a05ae85fd46,prompt,,,
,"
  <div style=""font-size:20px;"">
      <p>Your response has been logged.</p>
  </div>
  ",,html-keyboard-response,27.0,58993.0,0.0-3.0-1.8,anon_subject_260,659f04805339f753c1b65235,65a05a7e0f99dc411697c9da,0.41642503139060016,session-65a05ae85fd46,prompt,,,
,"
  <div style=""font-size:20px;"">
      <p>Your response has been logged.</p>
  </div>
  ",,html-keyboard-response,29.0,61308.0,0.0-3.0-1.9,anon_subject_260,659f04805339f753c1b65235,65a05a7e0f99dc411697c9da,0.41642503139060016,session-65a05ae85fd46,prompt,,,
,"
  <div style=""font-size:20px;"">
      <p>Your response has been logged.</p>
  </div>
  ",,html-keyboard-response,31.0,63748.0,0.0-3.0-1.10,anon_subject_260,659f04805339f753c1b65235,65a05a7e0f99dc411697c9da,0.41642503139060016,session-65a05ae85fd46,prompt,,,
,"
  <div style=""font-size:20px;"">
      <p>Your response has been logged.</p>
  </div>
  ",,html-keyboard-response,33.0,66361.0,0.0-3.0-1.11,anon_subject_260,659f04805339f753c1b65235,65a05a7e0f99dc411697c9da,0.41642503139060016,session-65a05ae85fd46,prompt,,,
,"
  <div style=""font-size:20px;"">
      <p>Your response has been logged.</p>
  </div>
  ",,html-keyboard-response,35.0,68806.0,0.0-3.0-1.12,anon_subject_260,659f04805339f753c1b65235,65a05a7e0f99dc411697c9da,0.41642503139060016,session-65a05ae85fd46,prompt,,,
,"
  <div style=""font-size:20px;"">
      <p>Your response has been logged.</p>
  </div>
  ",,html-keyboard-response,37.0,71033.0,0.0-3.0-1.13,anon_subject_260,659f04805339f753c1b65235,65a05a7e0f99dc411697c9da,0.41642503139060016,session-65a05ae85fd46,prompt,,,
,"
  <div style=""font-size:20px;"">
      <p>Your response has been logged.</p>
  </div>
  ",,html-keyboard-response,39.0,73447.0,0.0-3.0-1.14,anon_subject_260,659f04805339f753c1b65235,65a05a7e0f99dc411697c9da,0.41642503139060016,session-65a05ae85fd46,prompt,,,
,"
  <div style=""font-size:20px;"">
      <p>Your response has been logged.</p>
  </div>
  ",,html-keyboard-response,41.0,75574.0,0.0-3.0-1.15,anon_subject_260,659f04805339f753c1b65235,65a05a7e0f99dc411697c9da,0.41642503139060016,session-65a05ae85fd46,prompt,,,
,"
  <div style=""font-size:20px;"">
      <p>Your response has been logged.</p>
  </div>
  ",,html-keyboard-response,43.0,77779.0,0.0-3.0-1.16,anon_subject_260,659f04805339f753c1b65235,65a05a7e0f99dc411697c9da,0.41642503139060016,session-65a05ae85fd46,prompt,,,
,"
  <div style=""font-size:20px;"">
      <p>Your response has been logged.</p>
  </div>
  ",,html-keyboard-response,45.0,80218.0,0.0-3.0-1.17,anon_subject_260,659f04805339f753c1b65235,65a05a7e0f99dc411697c9da,0.41642503139060016,session-65a05ae85fd46,prompt,,,
,,,,,,,,,,,session-65a05ae85fd46,,True,2024-01-11T21:17:28.112Z,gesture-beat-expt-pilot
5984.0,"
    <div class=""jspsych-content"" align=left style=""width:100%;text-align: left;"">
    <p>Congratulations, you finished the practice trials! Now we will move on to the experiment.</p>
    <p>Remember, your task is the following:
    <p>
    <ul>
      <li>Read each question carefully.</li>
      <li>Answer whether the thing in the question can or cannot be done, based on what is possible given the physical laws of the real world.</li>
      <li>You will answer by pressing the <b>""1""</b> key for YES, or the <b>""0""</b> key for NO.</li>
      <li>Respond as quickly as you can.</li>
    </ul>
    <br>
  <p>Press SPACEBAR to begin the experiment.</p>
  </div>", ,html-keyboard-response,17.0,69204.0,0.0-2.0,anon_subject_18,659f04805339f753c1b65235,65a03fde5747bb3166d4efa7,0.22086302821812365,session-65a0406e32d44,,,,
,"
  <div style=""font-size:20px;"">
      <p>Your response has been logged.</p>
  </div>
  ",,html-keyboard-response,19.0,72279.0,0.0-3.0-1.0,anon_subject_18,659f04805339f753c1b65235,65a03fde5747bb3166d4efa7,0.22086302821812365,session-65a0406e32d44,prompt,,,
,"
  <div style=""font-size:20px;"">
      <p>Your response has been logged.</p>
  </div>
  ",,html-keyboard-response,21.0,75248.0,0.0-3.0-1.1,anon_subject_18,659f04805339f753c1b65235,65a03fde5747bb3166d4efa7,0.22086302821812365,session-65a0406e32d44,prompt,,,
,"
  <div style=""font-size:20px;"">
      <p>Your response has been logged.</p>
  </div>
  ",,html-keyboard-response,23.0,79163.0,0.0-3.0-1.2,anon_subject_18,659f04805339f753c1b65235,65a03fde5747bb3166d4efa7,0.22086302821812365,session-65a0406e32d44,prompt,,,
,"
  <div style=""font-size:20px;"">
      <p>Your response has been logged.</p>
  </div>
  ",,html-keyboard-response,25.0,82854.0,0.0-3.0-1.3,anon_subject_18,659f04805339f753c1b65235,65a03fde5747bb3166d4efa7,0.22086302821812365,session-65a0406e32d44,prompt,,,
,"
  <div style=""font-size:20px;"">
      <p>Your response has been logged.</p>
  </div>
  ",,html-keyboard-response,27.0,85775.0,0.0-3.0-1.4,anon_subject_18,659f04805339f753c1b65235,65a03fde5747bb3166d4efa7,0.22086302821812365,session-65a0406e32d44,prompt,,,
,"
  <div style=""font-size:20px;"">
      <p>Your response has been logged.</p>
  </div>
  ",,html-keyboard-response,29.0,88856.0,0.0-3.0-1.5,anon_subject_18,659f04805339f753c1b65235,65a03fde5747bb3166d4efa7,0.22086302821812365,session-65a0406e32d44,prompt,,,
,"
  <div style=""font-size:20px;"">
      <p>Your response has been logged.</p>
  </div>
  ",,html-keyboard-response,31.0,92076.0,0.0-3.0-1.6,anon_subject_18,659f04805339f753c1b65235,65a03fde5747bb3166d4efa7,0.22086302821812365,session-65a0406e32d44,prompt,,,
,"
  <div style=""font-size:20px;"">
      <p>Your response has been logged.</p>
  </div>
  ",,html-keyboard-response,33.0,95089.0,0.0-3.0-1.7,anon_subject_18,659f04805339f753c1b65235,65a03fde5747bb3166d4efa7,0.22086302821812365,session-65a0406e32d44,prompt,,,
,"
  <div style=""font-size:20px;"">
      <p>Your response has been logged.</p>
  </div>
  ",,html-keyboard-response,35.0,97745.0,0.0-3.0-1.8,anon_subject_18,659f04805339f753c1b65235,65a03fde5747bb3166d4efa7,0.22086302821812365,session-65a0406e32d44,prompt,,,
,"
  <div style=""font-size:20px;"">
      <p>Your response has been logged.</p>
  </div>
  ",,html-keyboard-response,37.0,100290.0,0.0-3.0-1.9,anon_subject_18,659f04805339f753c1b65235,65a03fde5747bb3166d4efa7,0.22086302821812365,session-65a0406e32d44,prompt,,,
,"
  <div style=""font-size:20px;"">
      <p>Your response has been logged.</p>
  </div>
  ",,html-keyboard-response,39.0,103687.0,0.0-3.0-1.10,anon_subject_18,659f04805339f753c1b65235,65a03fde5747bb3166d4efa7,0.22086302821812365,session-65a0406e32d44,prompt,,,
,"
  <div style=""font-size:20px;"">
      <p>Your response has been logged.</p>
  </div>
  ",,html-keyboard-response,41.0,106362.0,0.0-3.0-1.11,anon_subject_18,659f04805339f753c1b65235,65a03fde5747bb3166d4efa7,0.22086302821812365,session-65a0406e32d44,prompt,,,
,"
  <div style=""font-size:20px;"">
      <p>Your response has been logged.</p>
  </div>
  ",,html-keyboard-response,43.0,109176.0,0.0-3.0-1.12,anon_subject_18,659f04805339f753c1b65235,65a03fde5747bb3166d4efa7,0.22086302821812365,session-65a0406e32d44,prompt,,,
,"
  <div style=""font-size:20px;"">
      <p>Your response has been logged.</p>
  </div>
  ",,html-keyboard-response,45.0,112011.0,0.0-3.0-1.13,anon_subject_18,659f04805339f753c1b65235,65a03fde5747bb3166d4efa7,0.22086302821812365,session-65a0406e32d44,prompt,,,
,"
  <div style=""font-size:20px;"">
      <p>Your response has been logged.</p>
  </div>
  ",,html-keyboard-response,47.0,115386.0,0.0-3.0-1.14,anon_subject_18,659f04805339f753c1b65235,65a03fde5747bb3166d4efa7,0.22086302821812365,session-65a0406e32d44,prompt,,,
,"
  <div style=""font-size:20px;"">
      <p>Your response has been logged.</p>
  </div>
  ",,html-keyboard-response,49.0,118487.0,0.0-3.0-1.15,anon_subject_18,659f04805339f753c1b65235,65a03fde5747bb3166d4efa7,0.22086302821812365,session-65a0406e32d44,prompt,,,
,"
  <div style=""font-size:20px;"">
      <p>Your response has been logged.</p>
  </div>
  ",,html-keyboard-response,51.0,121125.0,0.0-3.0-1.16,anon_subject_18,659f04805339f753c1b65235,65a03fde5747bb3166d4efa7,0.22086302821812365,session-65a0406e32d44,prompt,,,
,"
  <div style=""font-size:20px;"">
      <p>Your response has been logged.</p>
  </div>
  ",,html-keyboard-response,53.0,123642.0,0.0-3.0-1.17,anon_subject_18,659f04805339f753c1b65235,65a03fde5747bb3166d4efa7,0.22086302821812365,session-65a0406e32d44,prompt,,,
,,,,,,,,,,,session-65a0406e32d44,,True,2024-01-11T19:24:29.664Z,gesture-beat-expt-pilot
2953.0,"
    <div class=""jspsych-content"" align=left style=""width:100%;text-align: left;"">
    <p>Congratulations, you finished the practice trials! Now we will move on to the experiment.</p>
    <p>Remember, your task is the following:
    <p>
    <ul>
      <li>Read each question carefully.</li>
      <li>Answer whether the thing in the question can or cannot be done, based on what is possible given the physical laws of the real world.</li>
      <li>You will answer by pressing the <b>""1""</b> key for YES, or the <b>""0""</b> key for NO.</li>
      <li>Respond as quickly as you can.</li>
    </ul>
    <br>
  <p>Press SPACEBAR to begin the experiment.</p>
  </div>", ,html-keyboard-response,9.0,33593.0,0.0-2.0,anon_subject_115,659f04805339f753c1b65235,65a03f5a9b6bc005fb6bdd8c,0.023534266892762945,session-65a042c51f700,,,,
,"
  <div style=""font-size:20px;"">
      <p>Your response has been logged.</p>
  </div>
  ",,html-keyboard-response,11.0,38509.0,0.0-3.0-1.0,anon_subject_115,659f04805339f753c1b65235,65a03f5a9b6bc005fb6bdd8c,0.023534266892762945,session-65a042c51f700,prompt,,,
,"
  <div style=""font-size:20px;"">
      <p>Your response has been logged.</p>
  </div>
  ",,html-keyboard-response,13.0,41832.0,0.0-3.0-1.1,anon_subject_115,659f04805339f753c1b65235,65a03f5a9b6bc005fb6bdd8c,0.023534266892762945,session-65a042c51f700,prompt,,,
,"
  <div style=""font-size:20px;"">
      <p>Your response has been logged.</p>
  </div>
  ",,html-keyboard-response,15.0,45762.0,0.0-3.0-1.2,anon_subject_115,659f04805339f753c1b65235,65a03f5a9b6bc005fb6bdd8c,0.023534266892762945,session-65a042c51f700,prompt,,,
,"
  <div style=""font-size:20px;"">
      <p>Your response has been logged.</p>
  </div>
  ",,html-keyboard-response,17.0,49803.0,0.0-3.0-1.3,anon_subject_115,659f04805339f753c1b65235,65a03f5a9b6bc005fb6bdd8c,0.023534266892762945,session-65a042c51f700,prompt,,,
,"
  <div style=""font-size:20px;"">
      <p>Your response has been logged.</p>
  </div>
  ",,html-keyboard-response,19.0,53157.0,0.0-3.0-1.4,anon_subject_115,659f04805339f753c1b65235,65a03f5a9b6bc005fb6bdd8c,0.023534266892762945,session-65a042c51f700,prompt,,,
,"
  <div style=""font-size:20px;"">
      <p>Your response has been logged.</p>
  </div>
  ",,html-keyboard-response,21.0,56985.0,0.0-3.0-1.5,anon_subject_115,659f04805339f753c1b65235,65a03f5a9b6bc005fb6bdd8c,0.023534266892762945,session-65a042c51f700,prompt,,,
,"
  <div style=""font-size:20px;"">
      <p>Your response has been logged.</p>
  </div>
  ",,html-keyboard-response,23.0,59393.0,0.0-3.0-1.6,anon_subject_115,659f04805339f753c1b65235,65a03f5a9b6bc005fb6bdd8c,0.023534266892762945,session-65a042c51f700,prompt,,,
,"
  <div style=""font-size:20px;"">
      <p>Your response has been logged.</p>
  </div>
  ",,html-keyboard-response,25.0,61816.0,0.0-3.0-1.7,anon_subject_115,659f04805339f753c1b65235,65a03f5a9b6bc005fb6bdd8c,0.023534266892762945,session-65a042c51f700,prompt,,,
,"
  <div style=""font-size:20px;"">
      <p>Your response has been logged.</p>
  </div>
  ",,html-keyboard-response,27.0,65259.0,0.0-3.0-1.8,anon_subject_115,659f04805339f753c1b65235,65a03f5a9b6bc005fb6bdd8c,0.023534266892762945,session-65a042c51f700,prompt,,,
,"
  <div style=""font-size:20px;"">
      <p>Your response has been logged.</p>
  </div>
  ",,html-keyboard-response,29.0,67732.0,0.0-3.0-1.9,anon_subject_115,659f04805339f753c1b65235,65a03f5a9b6bc005fb6bdd8c,0.023534266892762945,session-65a042c51f700,prompt,,,
,"
  <div style=""font-size:20px;"">
      <p>Your response has been logged.</p>
  </div>
  ",,html-keyboard-response,31.0,70400.0,0.0-3.0-1.10,anon_subject_115,659f04805339f753c1b65235,65a03f5a9b6bc005fb6bdd8c,0.023534266892762945,session-65a042c51f700,prompt,,,
,"
  <div style=""font-size:20px;"">
      <p>Your response has been logged.</p>
  </div>
  ",,html-keyboard-response,33.0,72977.0,0.0-3.0-1.11,anon_subject_115,659f04805339f753c1b65235,65a03f5a9b6bc005fb6bdd8c,0.023534266892762945,session-65a042c51f700,prompt,,,
,"
  <div style=""font-size:20px;"">
      <p>Your response has been logged.</p>
  </div>
  ",,html-keyboard-response,35.0,75587.0,0.0-3.0-1.12,anon_subject_115,659f04805339f753c1b65235,65a03f5a9b6bc005fb6bdd8c,0.023534266892762945,session-65a042c51f700,prompt,,,
,"
  <div style=""font-size:20px;"">
      <p>Your response has been logged.</p>
  </div>
  ",,html-keyboard-response,37.0,77736.0,0.0-3.0-1.13,anon_subject_115,659f04805339f753c1b65235,65a03f5a9b6bc005fb6bdd8c,0.023534266892762945,session-65a042c51f700,prompt,,,
,"
  <div style=""font-size:20px;"">
      <p>Your response has been logged.</p>
  </div>
  ",,html-keyboard-response,39.0,80576.0,0.0-3.0-1.14,anon_subject_115,659f04805339f753c1b65235,65a03f5a9b6bc005fb6bdd8c,0.023534266892762945,session-65a042c51f700,prompt,,,
,"
  <div style=""font-size:20px;"">
      <p>Your response has been logged.</p>
  </div>
  ",,html-keyboard-response,41.0,83148.0,0.0-3.0-1.15,anon_subject_115,659f04805339f753c1b65235,65a03f5a9b6bc005fb6bdd8c,0.023534266892762945,session-65a042c51f700,prompt,,,
,"
  <div style=""font-size:20px;"">
      <p>Your response has been logged.</p>
  </div>
  ",,html-keyboard-response,43.0,87172.0,0.0-3.0-1.16,anon_subject_115,659f04805339f753c1b65235,65a03f5a9b6bc005fb6bdd8c,0.023534266892762945,session-65a042c51f700,prompt,,,
,"
  <div style=""font-size:20px;"">
      <p>Your response has been logged.</p>
  </div>
  ",,html-keyboard-response,45.0,89874.0,0.0-3.0-1.17,anon_subject_115,659f04805339f753c1b65235,65a03f5a9b6bc005fb6bdd8c,0.023534266892762945,session-65a042c51f700,prompt,,,
,,,,,,,,,,,session-65a042c51f700,,True,2024-01-11T19:34:26.457Z,gesture-beat-expt-pilot
11159.0,"
    <div class=""jspsych-content"" align=left style=""width:100%;text-align: left;"">
    <p>Congratulations, you finished the practice trials! Now we will move on to the experiment.</p>
    <p>Remember, your task is the following:
    <p>
    <ul>
      <li>Read each question carefully.</li>
      <li>Answer whether the thing in the question can or cannot be done, based on what is possible given the physical laws of the real world.</li>
      <li>You will answer by pressing the <b>""1""</b> key for YES, or the <b>""0""</b> key for NO.</li>
      <li>Respond as quickly as you can.</li>
    </ul>
    <br>
  <p>Press SPACEBAR to begin the experiment.</p>
  </div>", ,html-keyboard-response,57.0,139617.0,0.0-2.0,anon_subject_273,659f04805339f753c1b65235,65a03edbe1f78d9853e38d4a,0.06950995915245839,session-65a03fbee4532,,,,
,"
  <div style=""font-size:20px;"">
      <p>Your response has been logged.</p>
  </div>
  ",,html-keyboard-response,59.0,141938.0,0.0-3.0-1.0,anon_subject_273,659f04805339f753c1b65235,65a03edbe1f78d9853e38d4a,0.06950995915245839,session-65a03fbee4532,prompt,,,
,"
  <div style=""font-size:20px;"">
      <p>Your response has been logged.</p>
  </div>
  ",,html-keyboard-response,61.0,144629.0,0.0-3.0-1.1,anon_subject_273,659f04805339f753c1b65235,65a03edbe1f78d9853e38d4a,0.06950995915245839,session-65a03fbee4532,prompt,,,
,"
  <div style=""font-size:20px;"">
      <p>Your response has been logged.</p>
  </div>
  ",,html-keyboard-response,63.0,147050.0,0.0-3.0-1.2,anon_subject_273,659f04805339f753c1b65235,65a03edbe1f78d9853e38d4a,0.06950995915245839,session-65a03fbee4532,prompt,,,
,"
  <div style=""font-size:20px;"">
      <p>Your response has been logged.</p>
  </div>
  ",,html-keyboard-response,65.0,149787.0,0.0-3.0-1.3,anon_subject_273,659f04805339f753c1b65235,65a03edbe1f78d9853e38d4a,0.06950995915245839,session-65a03fbee4532,prompt,,,
,"
  <div style=""font-size:20px;"">
      <p>Your response has been logged.</p>
  </div>
  ",,html-keyboard-response,67.0,152192.0,0.0-3.0-1.4,anon_subject_273,659f04805339f753c1b65235,65a03edbe1f78d9853e38d4a,0.06950995915245839,session-65a03fbee4532,prompt,,,
,"
  <div style=""font-size:20px;"">
      <p>Your response has been logged.</p>
  </div>
  ",,html-keyboard-response,69.0,155520.0,0.0-3.0-1.5,anon_subject_273,659f04805339f753c1b65235,65a03edbe1f78d9853e38d4a,0.06950995915245839,session-65a03fbee4532,prompt,,,
,"
  <div style=""font-size:20px;"">
      <p>Your response has been logged.</p>
  </div>
  ",,html-keyboard-response,71.0,158018.0,0.0-3.0-1.6,anon_subject_273,659f04805339f753c1b65235,65a03edbe1f78d9853e38d4a,0.06950995915245839,session-65a03fbee4532,prompt,,,
,"
  <div style=""font-size:20px;"">
      <p>Your response has been logged.</p>
  </div>
  ",,html-keyboard-response,73.0,160674.0,0.0-3.0-1.7,anon_subject_273,659f04805339f753c1b65235,65a03edbe1f78d9853e38d4a,0.06950995915245839,session-65a03fbee4532,prompt,,,
,"
  <div style=""font-size:20px;"">
      <p>Your response has been logged.</p>
  </div>
  ",,html-keyboard-response,75.0,163781.0,0.0-3.0-1.8,anon_subject_273,659f04805339f753c1b65235,65a03edbe1f78d9853e38d4a,0.06950995915245839,session-65a03fbee4532,prompt,,,
,"
  <div style=""font-size:20px;"">
      <p>Your response has been logged.</p>
  </div>
  ",,html-keyboard-response,77.0,166818.0,0.0-3.0-1.9,anon_subject_273,659f04805339f753c1b65235,65a03edbe1f78d9853e38d4a,0.06950995915245839,session-65a03fbee4532,prompt,,,
,"
  <div style=""font-size:20px;"">
      <p>Your response has been logged.</p>
  </div>
  ",,html-keyboard-response,79.0,169674.0,0.0-3.0-1.10,anon_subject_273,659f04805339f753c1b65235,65a03edbe1f78d9853e38d4a,0.06950995915245839,session-65a03fbee4532,prompt,,,
,"
  <div style=""font-size:20px;"">
      <p>Your response has been logged.</p>
  </div>
  ",,html-keyboard-response,81.0,172941.0,0.0-3.0-1.11,anon_subject_273,659f04805339f753c1b65235,65a03edbe1f78d9853e38d4a,0.06950995915245839,session-65a03fbee4532,prompt,,,
,"
  <div style=""font-size:20px;"">
      <p>Your response has been logged.</p>
  </div>
  ",,html-keyboard-response,83.0,177498.0,0.0-3.0-1.12,anon_subject_273,659f04805339f753c1b65235,65a03edbe1f78d9853e38d4a,0.06950995915245839,session-65a03fbee4532,prompt,,,
,"
  <div style=""font-size:20px;"">
      <p>Your response has been logged.</p>
  </div>
  ",,html-keyboard-response,85.0,179973.0,0.0-3.0-1.13,anon_subject_273,659f04805339f753c1b65235,65a03edbe1f78d9853e38d4a,0.06950995915245839,session-65a03fbee4532,prompt,,,
,"
  <div style=""font-size:20px;"">
      <p>Your response has been logged.</p>
  </div>
  ",,html-keyboard-response,87.0,182221.0,0.0-3.0-1.14,anon_subject_273,659f04805339f753c1b65235,65a03edbe1f78d9853e38d4a,0.06950995915245839,session-65a03fbee4532,prompt,,,
,"
  <div style=""font-size:20px;"">
      <p>Your response has been logged.</p>
  </div>
  ",,html-keyboard-response,89.0,185066.0,0.0-3.0-1.15,anon_subject_273,659f04805339f753c1b65235,65a03edbe1f78d9853e38d4a,0.06950995915245839,session-65a03fbee4532,prompt,,,
,"
  <div style=""font-size:20px;"">
      <p>Your response has been logged.</p>
  </div>
  ",,html-keyboard-response,91.0,187207.0,0.0-3.0-1.16,anon_subject_273,659f04805339f753c1b65235,65a03edbe1f78d9853e38d4a,0.06950995915245839,session-65a03fbee4532,prompt,,,
,"
  <div style=""font-size:20px;"">
      <p>Your response has been logged.</p>
  </div>
  ",,html-keyboard-response,93.0,190144.0,0.0-3.0-1.17,anon_subject_273,659f04805339f753c1b65235,65a03edbe1f78d9853e38d4a,0.06950995915245839,session-65a03fbee4532,prompt,,,
,,,,,,,,,,,session-65a03fbee4532,,True,2024-01-11T19:21:31.798Z,gesture-beat-expt-pilot
13839.0,"
    <div class=""jspsych-content"" align=left style=""width:100%;text-align: left;"">
    <p>Congratulations, you finished the practice trials! Now we will move on to the experiment.</p>
    <p>Remember, your task is the following:
    <p>
    <ul>
      <li>Read each question carefully.</li>
      <li>Answer whether the thing in the question can or cannot be done, based on what is possible given the physical laws of the real world.</li>
      <li>You will answer by pressing the <b>""1""</b> key for YES, or the <b>""0""</b> key for NO.</li>
      <li>Respond as quickly as you can.</li>
    </ul>
    <br>
  <p>Press SPACEBAR to begin the experiment.</p>
  </div>", ,html-keyboard-response,9.0,36795.0,0.0-2.0,anon_subject_148,659f04805339f753c1b65235,65a05a73420a02f3939b3822,0.47982684962880273,session-65a05aff81c21,,,,
,"
  <div style=""font-size:20px;"">
      <p>Your response has been logged.</p>
  </div>
  ",,html-keyboard-response,11.0,42244.0,0.0-3.0-1.0,anon_subject_148,659f04805339f753c1b65235,65a05a73420a02f3939b3822,0.47982684962880273,session-65a05aff81c21,prompt,,,
,"
  <div style=""font-size:20px;"">
      <p>Your response has been logged.</p>
  </div>
  ",,html-keyboard-response,13.0,46108.0,0.0-3.0-1.1,anon_subject_148,659f04805339f753c1b65235,65a05a73420a02f3939b3822,0.47982684962880273,session-65a05aff81c21,prompt,,,
,"
  <div style=""font-size:20px;"">
      <p>Your response has been logged.</p>
  </div>
  ",,html-keyboard-response,15.0,48949.0,0.0-3.0-1.2,anon_subject_148,659f04805339f753c1b65235,65a05a73420a02f3939b3822,0.47982684962880273,session-65a05aff81c21,prompt,,,
,"
  <div style=""font-size:20px;"">
      <p>Your response has been logged.</p>
  </div>
  ",,html-keyboard-response,17.0,51988.0,0.0-3.0-1.3,anon_subject_148,659f04805339f753c1b65235,65a05a73420a02f3939b3822,0.47982684962880273,session-65a05aff81c21,prompt,,,
,"
  <div style=""font-size:20px;"">
      <p>Your response has been logged.</p>
  </div>
  ",,html-keyboard-response,19.0,54788.0,0.0-3.0-1.4,anon_subject_148,659f04805339f753c1b65235,65a05a73420a02f3939b3822,0.47982684962880273,session-65a05aff81c21,prompt,,,
,"
  <div style=""font-size:20px;"">
      <p>Your response has been logged.</p>
  </div>
  ",,html-keyboard-response,21.0,58493.0,0.0-3.0-1.5,anon_subject_148,659f04805339f753c1b65235,65a05a73420a02f3939b3822,0.47982684962880273,session-65a05aff81c21,prompt,,,
,"
  <div style=""font-size:20px;"">
      <p>Your response has been logged.</p>
  </div>
  ",,html-keyboard-response,23.0,62788.0,0.0-3.0-1.6,anon_subject_148,659f04805339f753c1b65235,65a05a73420a02f3939b3822,0.47982684962880273,session-65a05aff81c21,prompt,,,
,"
  <div style=""font-size:20px;"">
      <p>Your response has been logged.</p>
  </div>
  ",,html-keyboard-response,25.0,66901.0,0.0-3.0-1.7,anon_subject_148,659f04805339f753c1b65235,65a05a73420a02f3939b3822,0.47982684962880273,session-65a05aff81c21,prompt,,,
,"
  <div style=""font-size:20px;"">
      <p>Your response has been logged.</p>
  </div>
  ",,html-keyboard-response,27.0,70157.0,0.0-3.0-1.8,anon_subject_148,659f04805339f753c1b65235,65a05a73420a02f3939b3822,0.47982684962880273,session-65a05aff81c21,prompt,,,
,"
  <div style=""font-size:20px;"">
      <p>Your response has been logged.</p>
  </div>
  ",,html-keyboard-response,29.0,73621.0,0.0-3.0-1.9,anon_subject_148,659f04805339f753c1b65235,65a05a73420a02f3939b3822,0.47982684962880273,session-65a05aff81c21,prompt,,,
,"
  <div style=""font-size:20px;"">
      <p>Your response has been logged.</p>
  </div>
  ",,html-keyboard-response,31.0,77156.0,0.0-3.0-1.10,anon_subject_148,659f04805339f753c1b65235,65a05a73420a02f3939b3822,0.47982684962880273,session-65a05aff81c21,prompt,,,
,"
  <div style=""font-size:20px;"">
      <p>Your response has been logged.</p>
  </div>
  ",,html-keyboard-response,33.0,80708.0,0.0-3.0-1.11,anon_subject_148,659f04805339f753c1b65235,65a05a73420a02f3939b3822,0.47982684962880273,session-65a05aff81c21,prompt,,,
,"
  <div style=""font-size:20px;"">
      <p>Your response has been logged.</p>
  </div>
  ",,html-keyboard-response,35.0,83693.0,0.0-3.0-1.12,anon_subject_148,659f04805339f753c1b65235,65a05a73420a02f3939b3822,0.47982684962880273,session-65a05aff81c21,prompt,,,
,"
  <div style=""font-size:20px;"">
      <p>Your response has been logged.</p>
  </div>
  ",,html-keyboard-response,37.0,86765.0,0.0-3.0-1.13,anon_subject_148,659f04805339f753c1b65235,65a05a73420a02f3939b3822,0.47982684962880273,session-65a05aff81c21,prompt,,,
,"
  <div style=""font-size:20px;"">
      <p>Your response has been logged.</p>
  </div>
  ",,html-keyboard-response,39.0,90795.0,0.0-3.0-1.14,anon_subject_148,659f04805339f753c1b65235,65a05a73420a02f3939b3822,0.47982684962880273,session-65a05aff81c21,prompt,,,
,"
  <div style=""font-size:20px;"">
      <p>Your response has been logged.</p>
  </div>
  ",,html-keyboard-response,41.0,95813.0,0.0-3.0-1.15,anon_subject_148,659f04805339f753c1b65235,65a05a73420a02f3939b3822,0.47982684962880273,session-65a05aff81c21,prompt,,,
,"
  <div style=""font-size:20px;"">
      <p>Your response has been logged.</p>
  </div>
  ",,html-keyboard-response,43.0,99084.0,0.0-3.0-1.16,anon_subject_148,659f04805339f753c1b65235,65a05a73420a02f3939b3822,0.47982684962880273,session-65a05aff81c21,prompt,,,
,"
  <div style=""font-size:20px;"">
      <p>Your response has been logged.</p>
  </div>
  ",,html-keyboard-response,45.0,103004.0,0.0-3.0-1.17,anon_subject_148,659f04805339f753c1b65235,65a05a73420a02f3939b3822,0.47982684962880273,session-65a05aff81c21,prompt,,,
,,,,,,,,,,,session-65a05aff81c21,,True,2024-01-11T21:17:51.483Z,gesture-beat-expt-pilot
12590.0,"
    <div class=""jspsych-content"" align=left style=""width:100%;text-align: left;"">
    <p>Congratulations, you finished the practice trials! Now we will move on to the experiment.</p>
    <p>Remember, your task is the following:
    <p>
    <ul>
      <li>Read each question carefully.</li>
      <li>Answer whether the thing in the question can or cannot be done, based on what is possible given the physical laws of the real world.</li>
      <li>You will answer by pressing the <b>""1""</b> key for YES, or the <b>""0""</b> key for NO.</li>
      <li>Respond as quickly as you can.</li>
    </ul>
    <br>
  <p>Press SPACEBAR to begin the experiment.</p>
  </div>", ,html-keyboard-response,33.0,139267.0,0.0-2.0,anon_subject_182,659f04805339f753c1b65235,65a05af2d15130d9d4b37b82,0.9899203577273183,session-65a05bd669c7e,,,,
,"
  <div style=""font-size:20px;"">
      <p>Your response has been logged.</p>
  </div>
  ",,html-keyboard-response,35.0,143738.0,0.0-3.0-1.0,anon_subject_182,659f04805339f753c1b65235,65a05af2d15130d9d4b37b82,0.9899203577273183,session-65a05bd669c7e,prompt,,,
,"
  <div style=""font-size:20px;"">
      <p>Your response has been logged.</p>
  </div>
  ",,html-keyboard-response,37.0,148186.0,0.0-3.0-1.1,anon_subject_182,659f04805339f753c1b65235,65a05af2d15130d9d4b37b82,0.9899203577273183,session-65a05bd669c7e,prompt,,,
,"
  <div style=""font-size:20px;"">
      <p>Your response has been logged.</p>
  </div>
  ",,html-keyboard-response,39.0,151367.0,0.0-3.0-1.2,anon_subject_182,659f04805339f753c1b65235,65a05af2d15130d9d4b37b82,0.9899203577273183,session-65a05bd669c7e,prompt,,,
,"
  <div style=""font-size:20px;"">
      <p>Your response has been logged.</p>
  </div>
  ",,html-keyboard-response,41.0,153972.0,0.0-3.0-1.3,anon_subject_182,659f04805339f753c1b65235,65a05af2d15130d9d4b37b82,0.9899203577273183,session-65a05bd669c7e,prompt,,,
,"
  <div style=""font-size:20px;"">
      <p>Your response has been logged.</p>
  </div>
  ",,html-keyboard-response,43.0,157421.0,0.0-3.0-1.4,anon_subject_182,659f04805339f753c1b65235,65a05af2d15130d9d4b37b82,0.9899203577273183,session-65a05bd669c7e,prompt,,,
,"
  <div style=""font-size:20px;"">
      <p>Your response has been logged.</p>
  </div>
  ",,html-keyboard-response,45.0,160175.0,0.0-3.0-1.5,anon_subject_182,659f04805339f753c1b65235,65a05af2d15130d9d4b37b82,0.9899203577273183,session-65a05bd669c7e,prompt,,,
,"
  <div style=""font-size:20px;"">
      <p>Your response has been logged.</p>
  </div>
  ",,html-keyboard-response,47.0,163178.0,0.0-3.0-1.6,anon_subject_182,659f04805339f753c1b65235,65a05af2d15130d9d4b37b82,0.9899203577273183,session-65a05bd669c7e,prompt,,,
,"
  <div style=""font-size:20px;"">
      <p>Your response has been logged.</p>
  </div>
  ",,html-keyboard-response,49.0,166333.0,0.0-3.0-1.7,anon_subject_182,659f04805339f753c1b65235,65a05af2d15130d9d4b37b82,0.9899203577273183,session-65a05bd669c7e,prompt,,,
,"
  <div style=""font-size:20px;"">
      <p>Your response has been logged.</p>
  </div>
  ",,html-keyboard-response,51.0,167748.0,0.0-3.0-1.8,anon_subject_182,659f04805339f753c1b65235,65a05af2d15130d9d4b37b82,0.9899203577273183,session-65a05bd669c7e,prompt,,,
,"
  <div style=""font-size:20px;"">
      <p>Your response has been logged.</p>
  </div>
  ",,html-keyboard-response,53.0,172223.0,0.0-3.0-1.9,anon_subject_182,659f04805339f753c1b65235,65a05af2d15130d9d4b37b82,0.9899203577273183,session-65a05bd669c7e,prompt,,,
,"
  <div style=""font-size:20px;"">
      <p>Your response has been logged.</p>
  </div>
  ",,html-keyboard-response,55.0,174739.0,0.0-3.0-1.10,anon_subject_182,659f04805339f753c1b65235,65a05af2d15130d9d4b37b82,0.9899203577273183,session-65a05bd669c7e,prompt,,,
,"
  <div style=""font-size:20px;"">
      <p>Your response has been logged.</p>
  </div>
  ",,html-keyboard-response,57.0,178713.0,0.0-3.0-1.11,anon_subject_182,659f04805339f753c1b65235,65a05af2d15130d9d4b37b82,0.9899203577273183,session-65a05bd669c7e,prompt,,,
,"
