rt,stimulus,response,task_type,correct_response,attemps,trial_type,trial_index,time_elapsed,internal_node_id,subject_id,study_id,session_id,rng_seed,correct,attempts,session_file_id
33718,Could someone drink a glass of water?,1,practice,1,1,html-keyboard-response,1,37006,0.0-1.0-0.0,anon_subject_285,659f04805339f753c1b65235,65a03ef5ee5c94479846d5af,0.06914232995603098,True,0,session-65a04185c5cb4
1166,Could someone move furniture with their mind?,0,practice,0,1,html-keyboard-response,2,38174,0.0-1.0-0.1,anon_subject_285,659f04805339f753c1b65235,65a03ef5ee5c94479846d5af,0.06914232995603098,True,0,session-65a04185c5cb4
912,Could someone find an alligator under their bed?,1,practice,1,1,html-keyboard-response,3,39085,0.0-1.0-0.2,anon_subject_285,659f04805339f753c1b65235,65a03ef5ee5c94479846d5af,0.06914232995603098,True,0,session-65a04185c5cb4
1176,Could someone pour a glass of honey?,1,practice,1,1,html-keyboard-response,4,40262,0.0-1.0-0.3,anon_subject_285,659f04805339f753c1b65235,65a03ef5ee5c94479846d5af,0.06914232995603098,True,0,session-65a04185c5cb4
839,Could someone put the moon in a soda can?,0,practice,0,1,html-keyboard-response,5,41101,0.0-1.0-0.4,anon_subject_285,659f04805339f753c1b65235,65a03ef5ee5c94479846d5af,0.06914232995603098,True,0,session-65a04185c5cb4
929,Could someone lock a door with a day?,0,practice,0,1,html-keyboard-response,6,42030,0.0-1.0-0.5,anon_subject_285,659f04805339f753c1b65235,65a03ef5ee5c94479846d5af,0.06914232995603098,True,0,session-65a04185c5cb4
1064,Could someone eat vegetables for dinner?,1,practice,1,1,html-keyboard-response,7,43093,0.0-1.0-0.6,anon_subject_285,659f04805339f753c1b65235,65a03ef5ee5c94479846d5af,0.06914232995603098,True,0,session-65a04185c5cb4
712,Could someone smash a pumpkin with sadness?,0,practice,0,1,html-keyboard-response,8,43805,0.0-1.0-0.7,anon_subject_285,659f04805339f753c1b65235,65a03ef5ee5c94479846d5af,0.06914232995603098,True,0,session-65a04185c5cb4
2382,Could someone drink a glass of water?,1,practice,1,1,html-keyboard-response,1,11541,0.0-1.0-0.0,anon_subject_30,659f04805339f753c1b65235,65a0471539341d75b93cf885,0.7930852442032413,True,0,session-65a04795a47b9
2126,Could someone move furniture with their mind?,0,practice,0,1,html-keyboard-response,2,13669,0.0-1.0-0.1,anon_subject_30,659f04805339f753c1b65235,65a0471539341d75b93cf885,0.7930852442032413,True,0,session-65a04795a47b9
2046,Could someone find an alligator under their bed?,0,practice,1,1,html-keyboard-response,3,15717,0.0-1.0-0.2,anon_subject_30,659f04805339f753c1b65235,65a0471539341d75b93cf885,0.7930852442032413,False,0,session-65a04795a47b9
2027,Could someone pour a glass of honey?,0,practice,1,1,html-keyboard-response,4,17746,0.0-1.0-0.3,anon_subject_30,659f04805339f753c1b65235,65a0471539341d75b93cf885,0.7930852442032413,False,0,session-65a04795a47b9
1858,Could someone put the moon in a soda can?,0,practice,0,1,html-keyboard-response,5,19606,0.0-1.0-0.4,anon_subject_30,659f04805339f753c1b65235,65a0471539341d75b93cf885,0.7930852442032413,True,0,session-65a04795a47b9
2172,Could someone lock a door with a day?,0,practice,0,1,html-keyboard-response,6,21779,0.0-1.0-0.5,anon_subject_30,659f04805339f753c1b65235,65a0471539341d75b93cf885,0.7930852442032413,True,0,session-65a04795a47b9
2255,Could someone eat vegetables for dinner?,1,practice,1,1,html-keyboard-response,7,24037,0.0-1.0-0.6,anon_subject_30,659f04805339f753c1b65235,65a0471539341d75b93cf885,0.7930852442032413,True,0,session-65a04795a47b9
2900,Could someone smash a pumpkin with sadness?,0,practice,0,1,html-keyboard-response,8,26939,0.0-1.0-0.7,anon_subject_30,659f04805339f753c1b65235,65a0471539341d75b93cf885,0.7930852442032413,True,0,session-65a04795a47b9
2006,Could someone drink a glass of water?,1,practice,1,1,html-keyboard-response,9,33542,0.0-1.1-0.8,anon_subject_30,659f04805339f753c1b65235,65a0471539341d75b93cf885,0.7930852442032413,True,1,session-65a04795a47b9
2047,Could someone move furniture with their mind?,0,practice,0,1,html-keyboard-response,10,35591,0.0-1.1-0.9,anon_subject_30,659f04805339f753c1b65235,65a0471539341d75b93cf885,0.7930852442032413,True,1,session-65a04795a47b9
1432,Could someone find an alligator under their bed?,1,practice,1,1,html-keyboard-response,11,37025,0.0-1.1-0.10,anon_subject_30,659f04805339f753c1b65235,65a0471539341d75b93cf885,0.7930852442032413,True,1,session-65a04795a47b9
3084,Could someone pour a glass of honey?,1,practice,1,1,html-keyboard-response,12,40112,0.0-1.1-0.11,anon_subject_30,659f04805339f753c1b65235,65a0471539341d75b93cf885,0.7930852442032413,True,1,session-65a04795a47b9
1344,Could someone put the moon in a soda can?,0,practice,0,1,html-keyboard-response,13,41457,0.0-1.1-0.12,anon_subject_30,659f04805339f753c1b65235,65a0471539341d75b93cf885,0.7930852442032413,True,1,session-65a04795a47b9
1217,Could someone lock a door with a day?,0,practice,0,1,html-keyboard-response,14,42677,0.0-1.1-0.13,anon_subject_30,659f04805339f753c1b65235,65a0471539341d75b93cf885,0.7930852442032413,True,1,session-65a04795a47b9
1455,Could someone eat vegetables for dinner?,1,practice,1,1,html-keyboard-response,15,44134,0.0-1.1-0.14,anon_subject_30,659f04805339f753c1b65235,65a0471539341d75b93cf885,0.7930852442032413,True,1,session-65a04795a47b9
1728,Could someone smash a pumpkin with sadness?,0,practice,0,1,html-keyboard-response,16,45864,0.0-1.1-0.15,anon_subject_30,659f04805339f753c1b65235,65a0471539341d75b93cf885,0.7930852442032413,True,1,session-65a04795a47b9
2431,Could someone drink a glass of water?,1,practice,1,1,html-keyboard-response,1,17154,0.0-1.0-0.0,anon_subject_146,659f04805339f753c1b65235,65a047892086d07cc8439b7d,0.6874473965112899,True,0,session-65a0480f36680
1374,Could someone move furniture with their mind?,0,practice,0,1,html-keyboard-response,2,18528,0.0-1.0-0.1,anon_subject_146,659f04805339f753c1b65235,65a047892086d07cc8439b7d,0.6874473965112899,True,0,session-65a0480f36680
1612,Could someone find an alligator under their bed?,0,practice,1,1,html-keyboard-response,3,20140,0.0-1.0-0.2,anon_subject_146,659f04805339f753c1b65235,65a047892086d07cc8439b7d,0.6874473965112899,False,0,session-65a0480f36680
1572,Could someone pour a glass of honey?,1,practice,1,1,html-keyboard-response,4,21712,0.0-1.0-0.3,anon_subject_146,659f04805339f753c1b65235,65a047892086d07cc8439b7d,0.6874473965112899,True,0,session-65a0480f36680
1326,Could someone put the moon in a soda can?,0,practice,0,1,html-keyboard-response,5,23038,0.0-1.0-0.4,anon_subject_146,659f04805339f753c1b65235,65a047892086d07cc8439b7d,0.6874473965112899,True,0,session-65a0480f36680
1428,Could someone lock a door with a day?,1,practice,0,1,html-keyboard-response,6,24467,0.0-1.0-0.5,anon_subject_146,659f04805339f753c1b65235,65a047892086d07cc8439b7d,0.6874473965112899,False,0,session-65a0480f36680
1951,Could someone eat vegetables for dinner?,1,practice,1,1,html-keyboard-response,7,26419,0.0-1.0-0.6,anon_subject_146,659f04805339f753c1b65235,65a047892086d07cc8439b7d,0.6874473965112899,True,0,session-65a0480f36680
2510,Could someone smash a pumpkin with sadness?,1,practice,0,1,html-keyboard-response,8,28929,0.0-1.0-0.7,anon_subject_146,659f04805339f753c1b65235,65a047892086d07cc8439b7d,0.6874473965112899,False,0,session-65a0480f36680
2443,Could someone drink a glass of water?,1,practice,1,1,html-keyboard-response,9,35727,0.0-1.1-0.8,anon_subject_146,659f04805339f753c1b65235,65a047892086d07cc8439b7d,0.6874473965112899,True,1,session-65a0480f36680
1168,Could someone move furniture with their mind?,0,practice,0,1,html-keyboard-response,10,36895,0.0-1.1-0.9,anon_subject_146,659f04805339f753c1b65235,65a047892086d07cc8439b7d,0.6874473965112899,True,1,session-65a0480f36680
2251,Could someone find an alligator under their bed?,1,practice,1,1,html-keyboard-response,11,39147,0.0-1.1-0.10,anon_subject_146,659f04805339f753c1b65235,65a047892086d07cc8439b7d,0.6874473965112899,True,1,session-65a0480f36680
1219,Could someone pour a glass of honey?,1,practice,1,1,html-keyboard-response,12,40366,0.0-1.1-0.11,anon_subject_146,659f04805339f753c1b65235,65a047892086d07cc8439b7d,0.6874473965112899,True,1,session-65a0480f36680
1090,Could someone put the moon in a soda can?,0,practice,0,1,html-keyboard-response,13,41456,0.0-1.1-0.12,anon_subject_146,659f04805339f753c1b65235,65a047892086d07cc8439b7d,0.6874473965112899,True,1,session-65a0480f36680
1977,Could someone lock a door with a day?,0,practice,0,1,html-keyboard-response,14,43433,0.0-1.1-0.13,anon_subject_146,659f04805339f753c1b65235,65a047892086d07cc8439b7d,0.6874473965112899,True,1,session-65a0480f36680
809,Could someone eat vegetables for dinner?,1,practice,1,1,html-keyboard-response,15,44243,0.0-1.1-0.14,anon_subject_146,659f04805339f753c1b65235,65a047892086d07cc8439b7d,0.6874473965112899,True,1,session-65a0480f36680
1072,Could someone smash a pumpkin with sadness?,0,practice,0,1,html-keyboard-response,16,45315,0.0-1.1-0.15,anon_subject_146,659f04805339f753c1b65235,65a047892086d07cc8439b7d,0.6874473965112899,True,1,session-65a0480f36680
2720,Could someone drink a glass of water?,1,practice,1,1,html-keyboard-response,1,7354,0.0-1.0-0.0,anon_subject_42,659f04805339f753c1b65235,65a0479e591c52695cdbe8c1,0.4290670587524601,True,0,session-65a0480f911e6
1997,Could someone move furniture with their mind?,0,practice,0,1,html-keyboard-response,2,9352,0.0-1.0-0.1,anon_subject_42,659f04805339f753c1b65235,65a0479e591c52695cdbe8c1,0.4290670587524601,True,0,session-65a0480f911e6
2253,Could someone find an alligator under their bed?,0,practice,1,1,html-keyboard-response,3,11606,0.0-1.0-0.2,anon_subject_42,659f04805339f753c1b65235,65a0479e591c52695cdbe8c1,0.4290670587524601,False,0,session-65a0480f911e6
2656,Could someone pour a glass of honey?,0,practice,1,1,html-keyboard-response,4,14263,0.0-1.0-0.3,anon_subject_42,659f04805339f753c1b65235,65a0479e591c52695cdbe8c1,0.4290670587524601,False,0,session-65a0480f911e6
1928,Could someone put the moon in a soda can?,0,practice,0,1,html-keyboard-response,5,16191,0.0-1.0-0.4,anon_subject_42,659f04805339f753c1b65235,65a0479e591c52695cdbe8c1,0.4290670587524601,True,0,session-65a0480f911e6
2883,Could someone lock a door with a day?,0,practice,0,1,html-keyboard-response,6,19075,0.0-1.0-0.5,anon_subject_42,659f04805339f753c1b65235,65a0479e591c52695cdbe8c1,0.4290670587524601,True,0,session-65a0480f911e6
1723,Could someone eat vegetables for dinner?,1,practice,1,1,html-keyboard-response,7,20799,0.0-1.0-0.6,anon_subject_42,659f04805339f753c1b65235,65a0479e591c52695cdbe8c1,0.4290670587524601,True,0,session-65a0480f911e6
1924,Could someone smash a pumpkin with sadness?,0,practice,0,1,html-keyboard-response,8,22724,0.0-1.0-0.7,anon_subject_42,659f04805339f753c1b65235,65a0479e591c52695cdbe8c1,0.4290670587524601,True,0,session-65a0480f911e6
3580,Could someone drink a glass of water?,1,practice,1,1,html-keyboard-response,9,31996,0.0-1.1-0.8,anon_subject_42,659f04805339f753c1b65235,65a0479e591c52695cdbe8c1,0.4290670587524601,True,1,session-65a0480f911e6
1917,Could someone move furniture with their mind?,0,practice,0,1,html-keyboard-response,10,33914,0.0-1.1-0.9,anon_subject_42,659f04805339f753c1b65235,65a0479e591c52695cdbe8c1,0.4290670587524601,True,1,session-65a0480f911e6
2376,Could someone find an alligator under their bed?,1,practice,1,1,html-keyboard-response,11,36290,0.0-1.1-0.10,anon_subject_42,659f04805339f753c1b65235,65a0479e591c52695cdbe8c1,0.4290670587524601,True,1,session-65a0480f911e6
1297,Could someone pour a glass of honey?,1,practice,1,1,html-keyboard-response,12,37588,0.0-1.1-0.11,anon_subject_42,659f04805339f753c1b65235,65a0479e591c52695cdbe8c1,0.4290670587524601,True,1,session-65a0480f911e6
1440,Could someone put the moon in a soda can?,0,practice,0,1,html-keyboard-response,13,39028,0.0-1.1-0.12,anon_subject_42,659f04805339f753c1b65235,65a0479e591c52695cdbe8c1,0.4290670587524601,True,1,session-65a0480f911e6
1633,Could someone lock a door with a day?,0,practice,0,1,html-keyboard-response,14,40662,0.0-1.1-0.13,anon_subject_42,659f04805339f753c1b65235,65a0479e591c52695cdbe8c1,0.4290670587524601,True,1,session-65a0480f911e6
2055,Could someone eat vegetables for dinner?,1,practice,1,1,html-keyboard-response,15,42717,0.0-1.1-0.14,anon_subject_42,659f04805339f753c1b65235,65a0479e591c52695cdbe8c1,0.4290670587524601,True,1,session-65a0480f911e6
1121,Could someone smash a pumpkin with sadness?,0,practice,0,1,html-keyboard-response,16,43839,0.0-1.1-0.15,anon_subject_42,659f04805339f753c1b65235,65a0479e591c52695cdbe8c1,0.4290670587524601,True,1,session-65a0480f911e6
1777,Could someone drink a glass of water?,1,practice,1,1,html-keyboard-response,1,20129,0.0-1.0-0.0,anon_subject_28,659f04805339f753c1b65235,65a05a6f2bb7751b509056c3,0.23192453619459075,True,0,session-65a05b470364e
2036,Could someone move furniture with their mind?,0,practice,0,1,html-keyboard-response,2,22177,0.0-1.0-0.1,anon_subject_28,659f04805339f753c1b65235,65a05a6f2bb7751b509056c3,0.23192453619459075,True,0,session-65a05b470364e
3746,Could someone find an alligator under their bed?,1,practice,1,1,html-keyboard-response,3,25935,0.0-1.0-0.2,anon_subject_28,659f04805339f753c1b65235,65a05a6f2bb7751b509056c3,0.23192453619459075,True,0,session-65a05b470364e
2934,Could someone pour a glass of honey?,1,practice,1,1,html-keyboard-response,4,28879,0.0-1.0-0.3,anon_subject_28,659f04805339f753c1b65235,65a05a6f2bb7751b509056c3,0.23192453619459075,True,0,session-65a05b470364e
1415,Could someone put the moon in a soda can?,0,practice,0,1,html-keyboard-response,5,30303,0.0-1.0-0.4,anon_subject_28,659f04805339f753c1b65235,65a05a6f2bb7751b509056c3,0.23192453619459075,True,0,session-65a05b470364e
1931,Could someone lock a door with a day?,0,practice,0,1,html-keyboard-response,6,32237,0.0-1.0-0.5,anon_subject_28,659f04805339f753c1b65235,65a05a6f2bb7751b509056c3,0.23192453619459075,True,0,session-65a05b470364e
1179,Could someone eat vegetables for dinner?,1,practice,1,1,html-keyboard-response,7,33421,0.0-1.0-0.6,anon_subject_28,659f04805339f753c1b65235,65a05a6f2bb7751b509056c3,0.23192453619459075,True,0,session-65a05b470364e
1610,Could someone smash a pumpkin with sadness?,0,practice,0,1,html-keyboard-response,8,35038,0.0-1.0-0.7,anon_subject_28,659f04805339f753c1b65235,65a05a6f2bb7751b509056c3,0.23192453619459075,True,0,session-65a05b470364e
2275,Could someone drink a glass of water?,1,practice,1,1,html-keyboard-response,1,26626,0.0-1.0-0.0,anon_subject_48,659f04805339f753c1b65235,65a05a84c58774cde45fed65,0.419133092128984,True,0,session-65a05b7603cc7
2074,Could someone move furniture with their mind?,0,practice,0,1,html-keyboard-response,2,28701,0.0-1.0-0.1,anon_subject_48,659f04805339f753c1b65235,65a05a84c58774cde45fed65,0.419133092128984,True,0,session-65a05b7603cc7
1474,Could someone find an alligator under their bed?,1,practice,1,1,html-keyboard-response,3,30175,0.0-1.0-0.2,anon_subject_48,659f04805339f753c1b65235,65a05a84c58774cde45fed65,0.419133092128984,True,0,session-65a05b7603cc7
1688,Could someone pour a glass of honey?,1,practice,1,1,html-keyboard-response,4,31864,0.0-1.0-0.3,anon_subject_48,659f04805339f753c1b65235,65a05a84c58774cde45fed65,0.419133092128984,True,0,session-65a05b7603cc7
2178,Could someone put the moon in a soda can?,0,practice,0,1,html-keyboard-response,5,34043,0.0-1.0-0.4,anon_subject_48,659f04805339f753c1b65235,65a05a84c58774cde45fed65,0.419133092128984,True,0,session-65a05b7603cc7
3885,Could someone lock a door with a day?,0,practice,0,1,html-keyboard-response,6,37929,0.0-1.0-0.5,anon_subject_48,659f04805339f753c1b65235,65a05a84c58774cde45fed65,0.419133092128984,True,0,session-65a05b7603cc7
1259,Could someone eat vegetables for dinner?,1,practice,1,1,html-keyboard-response,7,39189,0.0-1.0-0.6,anon_subject_48,659f04805339f753c1b65235,65a05a84c58774cde45fed65,0.419133092128984,True,0,session-65a05b7603cc7
2678,Could someone smash a pumpkin with sadness?,1,practice,0,1,html-keyboard-response,8,41868,0.0-1.0-0.7,anon_subject_48,659f04805339f753c1b65235,65a05a84c58774cde45fed65,0.419133092128984,False,0,session-65a05b7603cc7
725,Could someone drink a glass of water?,0,practice,1,1,html-keyboard-response,9,45780,0.0-1.1-0.8,anon_subject_48,659f04805339f753c1b65235,65a05a84c58774cde45fed65,0.419133092128984,False,1,session-65a05b7603cc7
2780,Could someone move furniture with their mind?,0,practice,0,1,html-keyboard-response,10,48561,0.0-1.1-0.9,anon_subject_48,659f04805339f753c1b65235,65a05a84c58774cde45fed65,0.419133092128984,True,1,session-65a05b7603cc7
2660,Could someone find an alligator under their bed?,1,practice,1,1,html-keyboard-response,11,51222,0.0-1.1-0.10,anon_subject_48,659f04805339f753c1b65235,65a05a84c58774cde45fed65,0.419133092128984,True,1,session-65a05b7603cc7
765,Could someone pour a glass of honey?,1,practice,1,1,html-keyboard-response,12,51987,0.0-1.1-0.11,anon_subject_48,659f04805339f753c1b65235,65a05a84c58774cde45fed65,0.419133092128984,True,1,session-65a05b7603cc7
1164,Could someone put the moon in a soda can?,0,practice,0,1,html-keyboard-response,13,53152,0.0-1.1-0.12,anon_subject_48,659f04805339f753c1b65235,65a05a84c58774cde45fed65,0.419133092128984,True,1,session-65a05b7603cc7
1330,Could someone lock a door with a day?,0,practice,0,1,html-keyboard-response,14,54483,0.0-1.1-0.13,anon_subject_48,659f04805339f753c1b65235,65a05a84c58774cde45fed65,0.419133092128984,True,1,session-65a05b7603cc7
1196,Could someone eat vegetables for dinner?,1,practice,1,1,html-keyboard-response,15,55679,0.0-1.1-0.14,anon_subject_48,659f04805339f753c1b65235,65a05a84c58774cde45fed65,0.419133092128984,True,1,session-65a05b7603cc7
843,Could someone smash a pumpkin with sadness?,0,practice,0,1,html-keyboard-response,16,56522,0.0-1.1-0.15,anon_subject_48,659f04805339f753c1b65235,65a05a84c58774cde45fed65,0.419133092128984,True,1,session-65a05b7603cc7
1811,Could someone drink a glass of water?,1,practice,1,1,html-keyboard-response,17,62808,0.0-1.2-0.16,anon_subject_48,659f04805339f753c1b65235,65a05a84c58774cde45fed65,0.419133092128984,True,2,session-65a05b7603cc7
4226,Could someone move furniture with their mind?,0,practice,0,1,html-keyboard-response,18,67035,0.0-1.2-0.17,anon_subject_48,659f04805339f753c1b65235,65a05a84c58774cde45fed65,0.419133092128984,True,2,session-65a05b7603cc7
2931,Could someone find an alligator under their bed?,1,practice,1,1,html-keyboard-response,19,69966,0.0-1.2-0.18,anon_subject_48,659f04805339f753c1b65235,65a05a84c58774cde45fed65,0.419133092128984,True,2,session-65a05b7603cc7
4618,Could someone pour a glass of honey?,0,practice,1,1,html-keyboard-response,20,74584,0.0-1.2-0.19,anon_subject_48,659f04805339f753c1b65235,65a05a84c58774cde45fed65,0.419133092128984,False,2,session-65a05b7603cc7
1166,Could someone put the moon in a soda can?,0,practice,0,1,html-keyboard-response,21,75751,0.0-1.2-0.20,anon_subject_48,659f04805339f753c1b65235,65a05a84c58774cde45fed65,0.419133092128984,True,2,session-65a05b7603cc7
4599,Could someone lock a door with a day?,0,practice,0,1,html-keyboard-response,22,80351,0.0-1.2-0.21,anon_subject_48,659f04805339f753c1b65235,65a05a84c58774cde45fed65,0.419133092128984,True,2,session-65a05b7603cc7
1491,Could someone eat vegetables for dinner?,1,practice,1,1,html-keyboard-response,23,81842,0.0-1.2-0.22,anon_subject_48,659f04805339f753c1b65235,65a05a84c58774cde45fed65,0.419133092128984,True,2,session-65a05b7603cc7
1890,Could someone smash a pumpkin with sadness?,0,practice,0,1,html-keyboard-response,24,83732,0.0-1.2-0.23,anon_subject_48,659f04805339f753c1b65235,65a05a84c58774cde45fed65,0.419133092128984,True,2,session-65a05b7603cc7
3145,Could someone drink a glass of water?,1,practice,1,1,html-keyboard-response,25,89559,0.0-1.3-0.24,anon_subject_48,659f04805339f753c1b65235,65a05a84c58774cde45fed65,0.419133092128984,True,3,session-65a05b7603cc7
5489,Could someone move furniture with their mind?,0,practice,0,1,html-keyboard-response,26,95049,0.0-1.3-0.25,anon_subject_48,659f04805339f753c1b65235,65a05a84c58774cde45fed65,0.419133092128984,True,3,session-65a05b7603cc7
3519,Could someone find an alligator under their bed?,0,practice,1,1,html-keyboard-response,27,98569,0.0-1.3-0.26,anon_subject_48,659f04805339f753c1b65235,65a05a84c58774cde45fed65,0.419133092128984,False,3,session-65a05b7603cc7
1436,Could someone pour a glass of honey?,0,practice,1,1,html-keyboard-response,28,100006,0.0-1.3-0.27,anon_subject_48,659f04805339f753c1b65235,65a05a84c58774cde45fed65,0.419133092128984,False,3,session-65a05b7603cc7
1005,Could someone put the moon in a soda can?,0,practice,0,1,html-keyboard-response,29,101011,0.0-1.3-0.28,anon_subject_48,659f04805339f753c1b65235,65a05a84c58774cde45fed65,0.419133092128984,True,3,session-65a05b7603cc7
857,Could someone lock a door with a day?,0,practice,0,1,html-keyboard-response,30,101869,0.0-1.3-0.29,anon_subject_48,659f04805339f753c1b65235,65a05a84c58774cde45fed65,0.419133092128984,True,3,session-65a05b7603cc7
2288,Could someone eat vegetables for dinner?,1,practice,1,1,html-keyboard-response,31,104157,0.0-1.3-0.30,anon_subject_48,659f04805339f753c1b65235,65a05a84c58774cde45fed65,0.419133092128984,True,3,session-65a05b7603cc7
1341,Could someone smash a pumpkin with sadness?,0,practice,0,1,html-keyboard-response,32,105499,0.0-1.3-0.31,anon_subject_48,659f04805339f753c1b65235,65a05a84c58774cde45fed65,0.419133092128984,True,3,session-65a05b7603cc7
4412,Could someone drink a glass of water?,1,practice,1,1,html-keyboard-response,33,113211,0.0-1.4-0.32,anon_subject_48,659f04805339f753c1b65235,65a05a84c58774cde45fed65,0.419133092128984,True,4,session-65a05b7603cc7
2539,Could someone move furniture with their mind?,0,practice,0,1,html-keyboard-response,34,115751,0.0-1.4-0.33,anon_subject_48,659f04805339f753c1b65235,65a05a84c58774cde45fed65,0.419133092128984,True,4,session-65a05b7603cc7
1516,Could someone find an alligator under their bed?,1,practice,1,1,html-keyboard-response,35,117268,0.0-1.4-0.34,anon_subject_48,659f04805339f753c1b65235,65a05a84c58774cde45fed65,0.419133092128984,True,4,session-65a05b7603cc7
5385,Could someone pour a glass of honey?,1,practice,1,1,html-keyboard-response,36,122653,0.0-1.4-0.35,anon_subject_48,659f04805339f753c1b65235,65a05a84c58774cde45fed65,0.419133092128984,True,4,session-65a05b7603cc7
2719,Could someone put the moon in a soda can?,0,practice,0,1,html-keyboard-response,37,125373,0.0-1.4-0.36,anon_subject_48,659f04805339f753c1b65235,65a05a84c58774cde45fed65,0.419133092128984,True,4,session-65a05b7603cc7
4667,Could someone lock a door with a day?,0,practice,0,1,html-keyboard-response,38,130041,0.0-1.4-0.37,anon_subject_48,659f04805339f753c1b65235,65a05a84c58774cde45fed65,0.419133092128984,True,4,session-65a05b7603cc7
3431,Could someone eat vegetables for dinner?,1,practice,1,1,html-keyboard-response,39,133472,0.0-1.4-0.38,anon_subject_48,659f04805339f753c1b65235,65a05a84c58774cde45fed65,0.419133092128984,True,4,session-65a05b7603cc7
2290,Could someone smash a pumpkin with sadness?,0,practice,0,1,html-keyboard-response,40,135762,0.0-1.4-0.39,anon_subject_48,659f04805339f753c1b65235,65a05a84c58774cde45fed65,0.419133092128984,True,4,session-65a05b7603cc7
4010,Could someone drink a glass of water?,1,practice,1,1,html-keyboard-response,1,32906,0.0-1.0-0.0,anon_subject_75,659f04805339f753c1b65235,65a0478029b65b56eb97c721,0.27540834490166843,True,0,session-65a04919e5681
4030,Could someone move furniture with their mind?,0,practice,0,1,html-keyboard-response,2,36938,0.0-1.0-0.1,anon_subject_75,659f04805339f753c1b65235,65a0478029b65b56eb97c721,0.27540834490166843,True,0,session-65a04919e5681
2343,Could someone find an alligator under their bed?,1,practice,1,1,html-keyboard-response,3,39282,0.0-1.0-0.2,anon_subject_75,659f04805339f753c1b65235,65a0478029b65b56eb97c721,0.27540834490166843,True,0,session-65a04919e5681
3246,Could someone pour a glass of honey?,1,practice,1,1,html-keyboard-response,4,42529,0.0-1.0-0.3,anon_subject_75,659f04805339f753c1b65235,65a0478029b65b56eb97c721,0.27540834490166843,True,0,session-65a04919e5681
2272,Could someone put the moon in a soda can?,0,practice,0,1,html-keyboard-response,5,44802,0.0-1.0-0.4,anon_subject_75,659f04805339f753c1b65235,65a0478029b65b56eb97c721,0.27540834490166843,True,0,session-65a04919e5681
3726,Could someone lock a door with a day?,0,practice,0,1,html-keyboard-response,6,48529,0.0-1.0-0.5,anon_subject_75,659f04805339f753c1b65235,65a0478029b65b56eb97c721,0.27540834490166843,True,0,session-65a04919e5681
1425,Could someone eat vegetables for dinner?,1,practice,1,1,html-keyboard-response,7,49954,0.0-1.0-0.6,anon_subject_75,659f04805339f753c1b65235,65a0478029b65b56eb97c721,0.27540834490166843,True,0,session-65a04919e5681
1448,Could someone smash a pumpkin with sadness?,0,practice,0,1,html-keyboard-response,8,51403,0.0-1.0-0.7,anon_subject_75,659f04805339f753c1b65235,65a0478029b65b56eb97c721,0.27540834490166843,True,0,session-65a04919e5681
1735,Could someone drink a glass of water?,1,practice,1,1,html-keyboard-response,1,16464,0.0-1.0-0.0,anon_subject_51,659f04805339f753c1b65235,65a03fae15177d3861dbe570,0.37630558641665357,True,0,session-65a04040ce87a
1988,Could someone move furniture with their mind?,0,practice,0,1,html-keyboard-response,2,18453,0.0-1.0-0.1,anon_subject_51,659f04805339f753c1b65235,65a03fae15177d3861dbe570,0.37630558641665357,True,0,session-65a04040ce87a
1954,Could someone find an alligator under their bed?,1,practice,1,1,html-keyboard-response,3,20407,0.0-1.0-0.2,anon_subject_51,659f04805339f753c1b65235,65a03fae15177d3861dbe570,0.37630558641665357,True,0,session-65a04040ce87a
2263,Could someone pour a glass of honey?,1,practice,1,1,html-keyboard-response,4,22670,0.0-1.0-0.3,anon_subject_51,659f04805339f753c1b65235,65a03fae15177d3861dbe570,0.37630558641665357,True,0,session-65a04040ce87a
2867,Could someone put the moon in a soda can?,0,practice,0,1,html-keyboard-response,5,25537,0.0-1.0-0.4,anon_subject_51,659f04805339f753c1b65235,65a03fae15177d3861dbe570,0.37630558641665357,True,0,session-65a04040ce87a
4746,Could someone lock a door with a day?,0,practice,0,1,html-keyboard-response,6,30284,0.0-1.0-0.5,anon_subject_51,659f04805339f753c1b65235,65a03fae15177d3861dbe570,0.37630558641665357,True,0,session-65a04040ce87a
2068,Could someone eat vegetables for dinner?,1,practice,1,1,html-keyboard-response,7,32352,0.0-1.0-0.6,anon_subject_51,659f04805339f753c1b65235,65a03fae15177d3861dbe570,0.37630558641665357,True,0,session-65a04040ce87a
2263,Could someone smash a pumpkin with sadness?,0,practice,0,1,html-keyboard-response,8,34615,0.0-1.0-0.7,anon_subject_51,659f04805339f753c1b65235,65a03fae15177d3861dbe570,0.37630558641665357,True,0,session-65a04040ce87a
29028,Could someone drink a glass of water?,1,practice,1,1,html-keyboard-response,1,32046,0.0-1.0-0.0,anon_subject_192,659f04805339f753c1b65235,65a02a8b15177d3861dbe02e,0.7261492057711199,True,0,session-65a02c23dc123
6137,Could someone move furniture with their mind?,0,practice,0,1,html-keyboard-response,2,38186,0.0-1.0-0.1,anon_subject_192,659f04805339f753c1b65235,65a02a8b15177d3861dbe02e,0.7261492057711199,True,0,session-65a02c23dc123
4399,Could someone find an alligator under their bed?,0,practice,1,1,html-keyboard-response,3,42585,0.0-1.0-0.2,anon_subject_192,659f04805339f753c1b65235,65a02a8b15177d3861dbe02e,0.7261492057711199,False,0,session-65a02c23dc123
5848,Could someone pour a glass of honey?,1,practice,1,1,html-keyboard-response,4,48434,0.0-1.0-0.3,anon_subject_192,659f04805339f753c1b65235,65a02a8b15177d3861dbe02e,0.7261492057711199,True,0,session-65a02c23dc123
4655,Could someone put the moon in a soda can?,0,practice,0,1,html-keyboard-response,5,53090,0.0-1.0-0.4,anon_subject_192,659f04805339f753c1b65235,65a02a8b15177d3861dbe02e,0.7261492057711199,True,0,session-65a02c23dc123
5711,Could someone lock a door with a day?,0,practice,0,1,html-keyboard-response,6,58802,0.0-1.0-0.5,anon_subject_192,659f04805339f753c1b65235,65a02a8b15177d3861dbe02e,0.7261492057711199,True,0,session-65a02c23dc123
4694,Could someone eat vegetables for dinner?,1,practice,1,1,html-keyboard-response,7,63498,0.0-1.0-0.6,anon_subject_192,659f04805339f753c1b65235,65a02a8b15177d3861dbe02e,0.7261492057711199,True,0,session-65a02c23dc123
3247,Could someone smash a pumpkin with sadness?,0,practice,0,1,html-keyboard-response,8,66746,0.0-1.0-0.7,anon_subject_192,659f04805339f753c1b65235,65a02a8b15177d3861dbe02e,0.7261492057711199,True,0,session-65a02c23dc123
64157,Could someone drink a glass of water?,1,practice,1,1,html-keyboard-response,9,138650,0.0-1.1-0.8,anon_subject_192,659f04805339f753c1b65235,65a02a8b15177d3861dbe02e,0.7261492057711199,True,1,session-65a02c23dc123
6847,Could someone move furniture with their mind?,0,practice,0,1,html-keyboard-response,10,145498,0.0-1.1-0.9,anon_subject_192,659f04805339f753c1b65235,65a02a8b15177d3861dbe02e,0.7261492057711199,True,1,session-65a02c23dc123
3392,Could someone find an alligator under their bed?,1,practice,1,1,html-keyboard-response,11,148890,0.0-1.1-0.10,anon_subject_192,659f04805339f753c1b65235,65a02a8b15177d3861dbe02e,0.7261492057711199,True,1,session-65a02c23dc123
26832,Could someone pour a glass of honey?,1,practice,1,1,html-keyboard-response,12,175723,0.0-1.1-0.11,anon_subject_192,659f04805339f753c1b65235,65a02a8b15177d3861dbe02e,0.7261492057711199,True,1,session-65a02c23dc123
2009,Could someone put the moon in a soda can?,0,practice,0,1,html-keyboard-response,13,177733,0.0-1.1-0.12,anon_subject_192,659f04805339f753c1b65235,65a02a8b15177d3861dbe02e,0.7261492057711199,True,1,session-65a02c23dc123
1684,Could someone lock a door with a day?,0,practice,0,1,html-keyboard-response,14,179418,0.0-1.1-0.13,anon_subject_192,659f04805339f753c1b65235,65a02a8b15177d3861dbe02e,0.7261492057711199,True,1,session-65a02c23dc123
1513,Could someone eat vegetables for dinner?,1,practice,1,1,html-keyboard-response,15,180932,0.0-1.1-0.14,anon_subject_192,659f04805339f753c1b65235,65a02a8b15177d3861dbe02e,0.7261492057711199,True,1,session-65a02c23dc123
1646,Could someone smash a pumpkin with sadness?,0,practice,0,1,html-keyboard-response,16,182580,0.0-1.1-0.15,anon_subject_192,659f04805339f753c1b65235,65a02a8b15177d3861dbe02e,0.7261492057711199,True,1,session-65a02c23dc123
1667,Could someone drink a glass of water?,1,practice,1,1,html-keyboard-response,1,10714,0.0-1.0-0.0,anon_subject_69,659f04805339f753c1b65235,65a0471c5068c51fec46d7ee,0.492064134132981,True,0,session-65a047aba18b0
2069,Could someone move furniture with their mind?,0,practice,0,1,html-keyboard-response,2,12785,0.0-1.0-0.1,anon_subject_69,659f04805339f753c1b65235,65a0471c5068c51fec46d7ee,0.492064134132981,True,0,session-65a047aba18b0
2056,Could someone find an alligator under their bed?,1,practice,1,1,html-keyboard-response,3,14842,0.0-1.0-0.2,anon_subject_69,659f04805339f753c1b65235,65a0471c5068c51fec46d7ee,0.492064134132981,True,0,session-65a047aba18b0
2391,Could someone pour a glass of honey?,1,practice,1,1,html-keyboard-response,4,17233,0.0-1.0-0.3,anon_subject_69,659f04805339f753c1b65235,65a0471c5068c51fec46d7ee,0.492064134132981,True,0,session-65a047aba18b0
2887,Could someone put the moon in a soda can?,0,practice,0,1,html-keyboard-response,5,20121,0.0-1.0-0.4,anon_subject_69,659f04805339f753c1b65235,65a0471c5068c51fec46d7ee,0.492064134132981,True,0,session-65a047aba18b0
2007,Could someone lock a door with a day?,0,practice,0,1,html-keyboard-response,6,22129,0.0-1.0-0.5,anon_subject_69,659f04805339f753c1b65235,65a0471c5068c51fec46d7ee,0.492064134132981,True,0,session-65a047aba18b0
1536,Could someone eat vegetables for dinner?,1,practice,1,1,html-keyboard-response,7,23665,0.0-1.0-0.6,anon_subject_69,659f04805339f753c1b65235,65a0471c5068c51fec46d7ee,0.492064134132981,True,0,session-65a047aba18b0
2361,Could someone smash a pumpkin with sadness?,0,practice,0,1,html-keyboard-response,8,26026,0.0-1.0-0.7,anon_subject_69,659f04805339f753c1b65235,65a0471c5068c51fec46d7ee,0.492064134132981,True,0,session-65a047aba18b0
1604,Could someone drink a glass of water?,1,practice,1,1,html-keyboard-response,1,10207,0.0-1.0-0.0,anon_subject_149,659f04805339f753c1b65235,65a0473a461451c85ed4f43e,0.9785815176210615,True,0,session-65a0479944049
1753,Could someone move furniture with their mind?,0,practice,0,1,html-keyboard-response,2,11962,0.0-1.0-0.1,anon_subject_149,659f04805339f753c1b65235,65a0473a461451c85ed4f43e,0.9785815176210615,True,0,session-65a0479944049
2037,Could someone find an alligator under their bed?,1,practice,1,1,html-keyboard-response,3,13999,0.0-1.0-0.2,anon_subject_149,659f04805339f753c1b65235,65a0473a461451c85ed4f43e,0.9785815176210615,True,0,session-65a0479944049
1200,Could someone pour a glass of honey?,1,practice,1,1,html-keyboard-response,4,15201,0.0-1.0-0.3,anon_subject_149,659f04805339f753c1b65235,65a0473a461451c85ed4f43e,0.9785815176210615,True,0,session-65a0479944049
2354,Could someone put the moon in a soda can?,0,practice,0,1,html-keyboard-response,5,17556,0.0-1.0-0.4,anon_subject_149,659f04805339f753c1b65235,65a0473a461451c85ed4f43e,0.9785815176210615,True,0,session-65a0479944049
1492,Could someone lock a door with a day?,0,practice,0,1,html-keyboard-response,6,19049,0.0-1.0-0.5,anon_subject_149,659f04805339f753c1b65235,65a0473a461451c85ed4f43e,0.9785815176210615,True,0,session-65a0479944049
1366,Could someone eat vegetables for dinner?,1,practice,1,1,html-keyboard-response,7,20417,0.0-1.0-0.6,anon_subject_149,659f04805339f753c1b65235,65a0473a461451c85ed4f43e,0.9785815176210615,True,0,session-65a0479944049
1598,Could someone smash a pumpkin with sadness?,0,practice,0,1,html-keyboard-response,8,22016,0.0-1.0-0.7,anon_subject_149,659f04805339f753c1b65235,65a0473a461451c85ed4f43e,0.9785815176210615,True,0,session-65a0479944049
2575,Could someone drink a glass of water?,1,practice,1,1,html-keyboard-response,1,19503,0.0-1.0-0.0,anon_subject_122,659f04805339f753c1b65235,65a03fd56bac4df6251b8e9a,0.2970422426465522,True,0,session-65a0405d43889
2424,Could someone move furniture with their mind?,0,practice,0,1,html-keyboard-response,2,21927,0.0-1.0-0.1,anon_subject_122,659f04805339f753c1b65235,65a03fd56bac4df6251b8e9a,0.2970422426465522,True,0,session-65a0405d43889
2360,Could someone find an alligator under their bed?,1,practice,1,1,html-keyboard-response,3,24287,0.0-1.0-0.2,anon_subject_122,659f04805339f753c1b65235,65a03fd56bac4df6251b8e9a,0.2970422426465522,True,0,session-65a0405d43889
2137,Could someone pour a glass of honey?,1,practice,1,1,html-keyboard-response,4,26425,0.0-1.0-0.3,anon_subject_122,659f04805339f753c1b65235,65a03fd56bac4df6251b8e9a,0.2970422426465522,True,0,session-65a0405d43889
2759,Could someone put the moon in a soda can?,0,practice,0,1,html-keyboard-response,5,29185,0.0-1.0-0.4,anon_subject_122,659f04805339f753c1b65235,65a03fd56bac4df6251b8e9a,0.2970422426465522,True,0,session-65a0405d43889
4127,Could someone lock a door with a day?,0,practice,0,1,html-keyboard-response,6,33312,0.0-1.0-0.5,anon_subject_122,659f04805339f753c1b65235,65a03fd56bac4df6251b8e9a,0.2970422426465522,True,0,session-65a0405d43889
1551,Could someone eat vegetables for dinner?,1,practice,1,1,html-keyboard-response,7,34864,0.0-1.0-0.6,anon_subject_122,659f04805339f753c1b65235,65a03fd56bac4df6251b8e9a,0.2970422426465522,True,0,session-65a0405d43889
2205,Could someone smash a pumpkin with sadness?,0,practice,0,1,html-keyboard-response,8,37071,0.0-1.0-0.7,anon_subject_122,659f04805339f753c1b65235,65a03fd56bac4df6251b8e9a,0.2970422426465522,True,0,session-65a0405d43889
2756,Could someone drink a glass of water?,1,practice,1,1,html-keyboard-response,1,19763,0.0-1.0-0.0,anon_subject_260,659f04805339f753c1b65235,65a05a7e0f99dc411697c9da,0.41642503139060016,True,0,session-65a05ae85fd46
1235,Could someone move furniture with their mind?,0,practice,0,1,html-keyboard-response,2,21000,0.0-1.0-0.1,anon_subject_260,659f04805339f753c1b65235,65a05a7e0f99dc411697c9da,0.41642503139060016,True,0,session-65a05ae85fd46
1648,Could someone find an alligator under their bed?,1,practice,1,1,html-keyboard-response,3,22649,0.0-1.0-0.2,anon_subject_260,659f04805339f753c1b65235,65a05a7e0f99dc411697c9da,0.41642503139060016,True,0,session-65a05ae85fd46
1527,Could someone pour a glass of honey?,1,practice,1,1,html-keyboard-response,4,24177,0.0-1.0-0.3,anon_subject_260,659f04805339f753c1b65235,65a05a7e0f99dc411697c9da,0.41642503139060016,True,0,session-65a05ae85fd46
1471,Could someone put the moon in a soda can?,0,practice,0,1,html-keyboard-response,5,25649,0.0-1.0-0.4,anon_subject_260,659f04805339f753c1b65235,65a05a7e0f99dc411697c9da,0.41642503139060016,True,0,session-65a05ae85fd46
1867,Could someone lock a door with a day?,0,practice,0,1,html-keyboard-response,6,27517,0.0-1.0-0.5,anon_subject_260,659f04805339f753c1b65235,65a05a7e0f99dc411697c9da,0.41642503139060016,True,0,session-65a05ae85fd46
1215,Could someone eat vegetables for dinner?,1,practice,1,1,html-keyboard-response,7,28732,0.0-1.0-0.6,anon_subject_260,659f04805339f753c1b65235,65a05a7e0f99dc411697c9da,0.41642503139060016,True,0,session-65a05ae85fd46
1427,Could someone smash a pumpkin with sadness?,0,practice,0,1,html-keyboard-response,8,30160,0.0-1.0-0.7,anon_subject_260,659f04805339f753c1b65235,65a05a7e0f99dc411697c9da,0.41642503139060016,True,0,session-65a05ae85fd46
2499,Could someone drink a glass of water?,1,practice,1,1,html-keyboard-response,1,21618,0.0-1.0-0.0,anon_subject_18,659f04805339f753c1b65235,65a03fde5747bb3166d4efa7,0.22086302821812365,True,0,session-65a0406e32d44
2405,Could someone move furniture with their mind?,0,practice,0,1,html-keyboard-response,2,24025,0.0-1.0-0.1,anon_subject_18,659f04805339f753c1b65235,65a03fde5747bb3166d4efa7,0.22086302821812365,True,0,session-65a0406e32d44
3868,Could someone find an alligator under their bed?,0,practice,1,1,html-keyboard-response,3,27894,0.0-1.0-0.2,anon_subject_18,659f04805339f753c1b65235,65a03fde5747bb3166d4efa7,0.22086302821812365,False,0,session-65a0406e32d44
3283,Could someone pour a glass of honey?,1,practice,1,1,html-keyboard-response,4,31177,0.0-1.0-0.3,anon_subject_18,659f04805339f753c1b65235,65a03fde5747bb3166d4efa7,0.22086302821812365,True,0,session-65a0406e32d44
2001,Could someone put the moon in a soda can?,0,practice,0,1,html-keyboard-response,5,33181,0.0-1.0-0.4,anon_subject_18,659f04805339f753c1b65235,65a03fde5747bb3166d4efa7,0.22086302821812365,True,0,session-65a0406e32d44
2720,Could someone lock a door with a day?,0,practice,0,1,html-keyboard-response,6,35902,0.0-1.0-0.5,anon_subject_18,659f04805339f753c1b65235,65a03fde5747bb3166d4efa7,0.22086302821812365,True,0,session-65a0406e32d44
2294,Could someone eat vegetables for dinner?,1,practice,1,1,html-keyboard-response,7,38198,0.0-1.0-0.6,anon_subject_18,659f04805339f753c1b65235,65a03fde5747bb3166d4efa7,0.22086302821812365,True,0,session-65a0406e32d44
2093,Could someone smash a pumpkin with sadness?,0,practice,0,1,html-keyboard-response,8,40292,0.0-1.0-0.7,anon_subject_18,659f04805339f753c1b65235,65a03fde5747bb3166d4efa7,0.22086302821812365,True,0,session-65a0406e32d44
3971,Could someone drink a glass of water?,1,practice,1,1,html-keyboard-response,9,47355,0.0-1.1-0.8,anon_subject_18,659f04805339f753c1b65235,65a03fde5747bb3166d4efa7,0.22086302821812365,True,1,session-65a0406e32d44
3914,Could someone move furniture with their mind?,0,practice,0,1,html-keyboard-response,10,51271,0.0-1.1-0.9,anon_subject_18,659f04805339f753c1b65235,65a03fde5747bb3166d4efa7,0.22086302821812365,True,1,session-65a0406e32d44
1844,Could someone find an alligator under their bed?,1,practice,1,1,html-keyboard-response,11,53116,0.0-1.1-0.10,anon_subject_18,659f04805339f753c1b65235,65a03fde5747bb3166d4efa7,0.22086302821812365,True,1,session-65a0406e32d44
2341,Could someone pour a glass of honey?,1,practice,1,1,html-keyboard-response,12,55458,0.0-1.1-0.11,anon_subject_18,659f04805339f753c1b65235,65a03fde5747bb3166d4efa7,0.22086302821812365,True,1,session-65a0406e32d44
1460,Could someone put the moon in a soda can?,0,practice,0,1,html-keyboard-response,13,56918,0.0-1.1-0.12,anon_subject_18,659f04805339f753c1b65235,65a03fde5747bb3166d4efa7,0.22086302821812365,True,1,session-65a0406e32d44
2158,Could someone lock a door with a day?,0,practice,0,1,html-keyboard-response,14,59077,0.0-1.1-0.13,anon_subject_18,659f04805339f753c1b65235,65a03fde5747bb3166d4efa7,0.22086302821812365,True,1,session-65a0406e32d44
1374,Could someone eat vegetables for dinner?,1,practice,1,1,html-keyboard-response,15,60452,0.0-1.1-0.14,anon_subject_18,659f04805339f753c1b65235,65a03fde5747bb3166d4efa7,0.22086302821812365,True,1,session-65a0406e32d44
2765,Could someone smash a pumpkin with sadness?,0,practice,0,1,html-keyboard-response,16,63217,0.0-1.1-0.15,anon_subject_18,659f04805339f753c1b65235,65a03fde5747bb3166d4efa7,0.22086302821812365,True,1,session-65a0406e32d44
2438,Could someone drink a glass of water?,1,practice,1,1,html-keyboard-response,1,17736,0.0-1.0-0.0,anon_subject_115,659f04805339f753c1b65235,65a03f5a9b6bc005fb6bdd8c,0.023534266892762945,True,0,session-65a042c51f700
2719,Could someone move furniture with their mind?,0,practice,0,1,html-keyboard-response,2,20456,0.0-1.0-0.1,anon_subject_115,659f04805339f753c1b65235,65a03f5a9b6bc005fb6bdd8c,0.023534266892762945,True,0,session-65a042c51f700
1649,Could someone find an alligator under their bed?,1,practice,1,1,html-keyboard-response,3,22107,0.0-1.0-0.2,anon_subject_115,659f04805339f753c1b65235,65a03f5a9b6bc005fb6bdd8c,0.023534266892762945,True,0,session-65a042c51f700
1659,Could someone pour a glass of honey?,1,practice,1,1,html-keyboard-response,4,23767,0.0-1.0-0.3,anon_subject_115,659f04805339f753c1b65235,65a03f5a9b6bc005fb6bdd8c,0.023534266892762945,True,0,session-65a042c51f700
1822,Could someone put the moon in a soda can?,0,practice,0,1,html-keyboard-response,5,25590,0.0-1.0-0.4,anon_subject_115,659f04805339f753c1b65235,65a03f5a9b6bc005fb6bdd8c,0.023534266892762945,True,0,session-65a042c51f700
1850,Could someone lock a door with a day?,0,practice,0,1,html-keyboard-response,6,27441,0.0-1.0-0.5,anon_subject_115,659f04805339f753c1b65235,65a03f5a9b6bc005fb6bdd8c,0.023534266892762945,True,0,session-65a042c51f700
1412,Could someone eat vegetables for dinner?,1,practice,1,1,html-keyboard-response,7,28854,0.0-1.0-0.6,anon_subject_115,659f04805339f753c1b65235,65a03f5a9b6bc005fb6bdd8c,0.023534266892762945,True,0,session-65a042c51f700
1782,Could someone smash a pumpkin with sadness?,0,practice,0,1,html-keyboard-response,8,30637,0.0-1.0-0.7,anon_subject_115,659f04805339f753c1b65235,65a03f5a9b6bc005fb6bdd8c,0.023534266892762945,True,0,session-65a042c51f700
3213,Could someone drink a glass of water?,1,practice,1,1,html-keyboard-response,1,26057,0.0-1.0-0.0,anon_subject_273,659f04805339f753c1b65235,65a03edbe1f78d9853e38d4a,0.06950995915245839,True,0,session-65a03fbee4532
1751,Could someone move furniture with their mind?,0,practice,0,1,html-keyboard-response,2,27809,0.0-1.0-0.1,anon_subject_273,659f04805339f753c1b65235,65a03edbe1f78d9853e38d4a,0.06950995915245839,True,0,session-65a03fbee4532
1851,Could someone find an alligator under their bed?,0,practice,1,1,html-keyboard-response,3,29660,0.0-1.0-0.2,anon_subject_273,659f04805339f753c1b65235,65a03edbe1f78d9853e38d4a,0.06950995915245839,False,0,session-65a03fbee4532
1940,Could someone pour a glass of honey?,1,practice,1,1,html-keyboard-response,4,31601,0.0-1.0-0.3,anon_subject_273,659f04805339f753c1b65235,65a03edbe1f78d9853e38d4a,0.06950995915245839,True,0,session-65a03fbee4532
1607,Could someone put the moon in a soda can?,0,practice,0,1,html-keyboard-response,5,33208,0.0-1.0-0.4,anon_subject_273,659f04805339f753c1b65235,65a03edbe1f78d9853e38d4a,0.06950995915245839,True,0,session-65a03fbee4532
2248,Could someone lock a door with a day?,0,practice,0,1,html-keyboard-response,6,35456,0.0-1.0-0.5,anon_subject_273,659f04805339f753c1b65235,65a03edbe1f78d9853e38d4a,0.06950995915245839,True,0,session-65a03fbee4532
1472,Could someone eat vegetables for dinner?,1,practice,1,1,html-keyboard-response,7,36928,0.0-1.0-0.6,anon_subject_273,659f04805339f753c1b65235,65a03edbe1f78d9853e38d4a,0.06950995915245839,True,0,session-65a03fbee4532
1632,Could someone smash a pumpkin with sadness?,0,practice,0,1,html-keyboard-response,8,38561,0.0-1.0-0.7,anon_subject_273,659f04805339f753c1b65235,65a03edbe1f78d9853e38d4a,0.06950995915245839,True,0,session-65a03fbee4532
2688,Could someone drink a glass of water?,1,practice,1,1,html-keyboard-response,9,44129,0.0-1.1-0.8,anon_subject_273,659f04805339f753c1b65235,65a03edbe1f78d9853e38d4a,0.06950995915245839,True,1,session-65a03fbee4532
3602,Could someone move furniture with their mind?,0,practice,0,1,html-keyboard-response,10,47731,0.0-1.1-0.9,anon_subject_273,659f04805339f753c1b65235,65a03edbe1f78d9853e38d4a,0.06950995915245839,True,1,session-65a03fbee4532
1502,Could someone find an alligator under their bed?,0,practice,1,1,html-keyboard-response,11,49233,0.0-1.1-0.10,anon_subject_273,659f04805339f753c1b65235,65a03edbe1f78d9853e38d4a,0.06950995915245839,False,1,session-65a03fbee4532
3113,Could someone pour a glass of honey?,1,practice,1,1,html-keyboard-response,12,52347,0.0-1.1-0.11,anon_subject_273,659f04805339f753c1b65235,65a03edbe1f78d9853e38d4a,0.06950995915245839,True,1,session-65a03fbee4532
1857,Could someone put the moon in a soda can?,0,practice,0,1,html-keyboard-response,13,54204,0.0-1.1-0.12,anon_subject_273,659f04805339f753c1b65235,65a03edbe1f78d9853e38d4a,0.06950995915245839,True,1,session-65a03fbee4532
3075,Could someone lock a door with a day?,0,practice,0,1,html-keyboard-response,14,57280,0.0-1.1-0.13,anon_subject_273,659f04805339f753c1b65235,65a03edbe1f78d9853e38d4a,0.06950995915245839,True,1,session-65a03fbee4532
977,Could someone eat vegetables for dinner?,1,practice,1,1,html-keyboard-response,15,58257,0.0-1.1-0.14,anon_subject_273,659f04805339f753c1b65235,65a03edbe1f78d9853e38d4a,0.06950995915245839,True,1,session-65a03fbee4532
1327,Could someone smash a pumpkin with sadness?,0,practice,0,1,html-keyboard-response,16,59584,0.0-1.1-0.15,anon_subject_273,659f04805339f753c1b65235,65a03edbe1f78d9853e38d4a,0.06950995915245839,True,1,session-65a03fbee4532
1555,Could someone drink a glass of water?,1,practice,1,1,html-keyboard-response,17,62604,0.0-1.2-0.16,anon_subject_273,659f04805339f753c1b65235,65a03edbe1f78d9853e38d4a,0.06950995915245839,True,2,session-65a03fbee4532
2420,Could someone move furniture with their mind?,0,practice,0,1,html-keyboard-response,18,65025,0.0-1.2-0.17,anon_subject_273,659f04805339f753c1b65235,65a03edbe1f78d9853e38d4a,0.06950995915245839,True,2,session-65a03fbee4532
1460,Could someone find an alligator under their bed?,0,practice,1,1,html-keyboard-response,19,66485,0.0-1.2-0.18,anon_subject_273,659f04805339f753c1b65235,65a03edbe1f78d9853e38d4a,0.06950995915245839,False,2,session-65a03fbee4532
671,Could someone pour a glass of honey?,1,practice,1,1,html-keyboard-response,20,67157,0.0-1.2-0.19,anon_subject_273,659f04805339f753c1b65235,65a03edbe1f78d9853e38d4a,0.06950995915245839,True,2,session-65a03fbee4532
1964,Could someone put the moon in a soda can?,0,practice,0,1,html-keyboard-response,21,69121,0.0-1.2-0.20,anon_subject_273,659f04805339f753c1b65235,65a03edbe1f78d9853e38d4a,0.06950995915245839,True,2,session-65a03fbee4532
850,Could someone lock a door with a day?,0,practice,0,1,html-keyboard-response,22,69972,0.0-1.2-0.21,anon_subject_273,659f04805339f753c1b65235,65a03edbe1f78d9853e38d4a,0.06950995915245839,True,2,session-65a03fbee4532
3180,Could someone eat vegetables for dinner?,1,practice,1,1,html-keyboard-response,23,73153,0.0-1.2-0.22,anon_subject_273,659f04805339f753c1b65235,65a03edbe1f78d9853e38d4a,0.06950995915245839,True,2,session-65a03fbee4532
979,Could someone smash a pumpkin with sadness?,0,practice,0,1,html-keyboard-response,24,74132,0.0-1.2-0.23,anon_subject_273,659f04805339f753c1b65235,65a03edbe1f78d9853e38d4a,0.06950995915245839,True,2,session-65a03fbee4532
2471,Could someone drink a glass of water?,1,practice,1,1,html-keyboard-response,25,77544,0.0-1.3-0.24,anon_subject_273,659f04805339f753c1b65235,65a03edbe1f78d9853e38d4a,0.06950995915245839,True,3,session-65a03fbee4532
1746,Could someone move furniture with their mind?,0,practice,0,1,html-keyboard-response,26,79290,0.0-1.3-0.25,anon_subject_273,659f04805339f753c1b65235,65a03edbe1f78d9853e38d4a,0.06950995915245839,True,3,session-65a03fbee4532
1184,Could someone find an alligator under their bed?,0,practice,1,1,html-keyboard-response,27,80475,0.0-1.3-0.26,anon_subject_273,659f04805339f753c1b65235,65a03edbe1f78d9853e38d4a,0.06950995915245839,False,3,session-65a03fbee4532
1238,Could someone pour a glass of honey?,0,practice,1,1,html-keyboard-response,28,81713,0.0-1.3-0.27,anon_subject_273,659f04805339f753c1b65235,65a03edbe1f78d9853e38d4a,0.06950995915245839,False,3,session-65a03fbee4532
1259,Could someone put the moon in a soda can?,0,practice,0,1,html-keyboard-response,29,82974,0.0-1.3-0.28,anon_subject_273,659f04805339f753c1b65235,65a03edbe1f78d9853e38d4a,0.06950995915245839,True,3,session-65a03fbee4532
2307,Could someone lock a door with a day?,0,practice,0,1,html-keyboard-response,30,85281,0.0-1.3-0.29,anon_subject_273,659f04805339f753c1b65235,65a03edbe1f78d9853e38d4a,0.06950995915245839,True,3,session-65a03fbee4532
1168,Could someone eat vegetables for dinner?,1,practice,1,1,html-keyboard-response,31,86449,0.0-1.3-0.30,anon_subject_273,659f04805339f753c1b65235,65a03edbe1f78d9853e38d4a,0.06950995915245839,True,3,session-65a03fbee4532
751,Could someone smash a pumpkin with sadness?,0,practice,0,1,html-keyboard-response,32,87201,0.0-1.3-0.31,anon_subject_273,659f04805339f753c1b65235,65a03edbe1f78d9853e38d4a,0.06950995915245839,True,3,session-65a03fbee4532
928,Could someone drink a glass of water?,1,practice,1,1,html-keyboard-response,33,89025,0.0-1.4-0.32,anon_subject_273,659f04805339f753c1b65235,65a03edbe1f78d9853e38d4a,0.06950995915245839,True,4,session-65a03fbee4532
1151,Could someone move furniture with their mind?,0,practice,0,1,html-keyboard-response,34,90177,0.0-1.4-0.33,anon_subject_273,659f04805339f753c1b65235,65a03edbe1f78d9853e38d4a,0.06950995915245839,True,4,session-65a03fbee4532
2201,Could someone find an alligator under their bed?,0,practice,1,1,html-keyboard-response,35,92378,0.0-1.4-0.34,anon_subject_273,659f04805339f753c1b65235,65a03edbe1f78d9853e38d4a,0.06950995915245839,False,4,session-65a03fbee4532
5542,Could someone pour a glass of honey?,0,practice,1,1,html-keyboard-response,36,97921,0.0-1.4-0.35,anon_subject_273,659f04805339f753c1b65235,65a03edbe1f78d9853e38d4a,0.06950995915245839,False,4,session-65a03fbee4532
800,Could someone put the moon in a soda can?,0,practice,0,1,html-keyboard-response,37,98721,0.0-1.4-0.36,anon_subject_273,659f04805339f753c1b65235,65a03edbe1f78d9853e38d4a,0.06950995915245839,True,4,session-65a03fbee4532
736,Could someone lock a door with a day?,0,practice,0,1,html-keyboard-response,38,99457,0.0-1.4-0.37,anon_subject_273,659f04805339f753c1b65235,65a03edbe1f78d9853e38d4a,0.06950995915245839,True,4,session-65a03fbee4532
788,Could someone eat vegetables for dinner?,1,practice,1,1,html-keyboard-response,39,100245,0.0-1.4-0.38,anon_subject_273,659f04805339f753c1b65235,65a03edbe1f78d9853e38d4a,0.06950995915245839,True,4,session-65a03fbee4532
603,Could someone smash a pumpkin with sadness?,0,practice,0,1,html-keyboard-response,40,100849,0.0-1.4-0.39,anon_subject_273,659f04805339f753c1b65235,65a03edbe1f78d9853e38d4a,0.06950995915245839,True,4,session-65a03fbee4532
1242,Could someone drink a glass of water?,1,practice,1,1,html-keyboard-response,41,102820,0.0-1.5-0.40,anon_subject_273,659f04805339f753c1b65235,65a03edbe1f78d9853e38d4a,0.06950995915245839,True,5,session-65a03fbee4532
3782,Could someone move furniture with their mind?,0,practice,0,1,html-keyboard-response,42,106602,0.0-1.5-0.41,anon_subject_273,659f04805339f753c1b65235,65a03edbe1f78d9853e38d4a,0.06950995915245839,True,5,session-65a03fbee4532
800,Could someone find an alligator under their bed?,0,practice,1,1,html-keyboard-response,43,107402,0.0-1.5-0.42,anon_subject_273,659f04805339f753c1b65235,65a03edbe1f78d9853e38d4a,0.06950995915245839,False,5,session-65a03fbee4532
3834,Could someone pour a glass of honey?,1,practice,1,1,html-keyboard-response,44,111237,0.0-1.5-0.43,anon_subject_273,659f04805339f753c1b65235,65a03edbe1f78d9853e38d4a,0.06950995915245839,True,5,session-65a03fbee4532
1371,Could someone put the moon in a soda can?,0,practice,0,1,html-keyboard-response,45,112609,0.0-1.5-0.44,anon_subject_273,659f04805339f753c1b65235,65a03edbe1f78d9853e38d4a,0.06950995915245839,True,5,session-65a03fbee4532
1423,Could someone lock a door with a day?,0,practice,0,1,html-keyboard-response,46,114032,0.0-1.5-0.45,anon_subject_273,659f04805339f753c1b65235,65a03edbe1f78d9853e38d4a,0.06950995915245839,True,5,session-65a03fbee4532
607,Could someone eat vegetables for dinner?,1,practice,1,1,html-keyboard-response,47,114640,0.0-1.5-0.46,anon_subject_273,659f04805339f753c1b65235,65a03edbe1f78d9853e38d4a,0.06950995915245839,True,5,session-65a03fbee4532
2288,Could someone smash a pumpkin with sadness?,1,practice,0,1,html-keyboard-response,48,116928,0.0-1.5-0.47,anon_subject_273,659f04805339f753c1b65235,65a03edbe1f78d9853e38d4a,0.06950995915245839,False,5,session-65a03fbee4532
1888,Could someone drink a glass of water?,1,practice,1,1,html-keyboard-response,49,119634,0.0-1.6-0.48,anon_subject_273,659f04805339f753c1b65235,65a03edbe1f78d9853e38d4a,0.06950995915245839,True,6,session-65a03fbee4532
1592,Could someone move furniture with their mind?,0,practice,0,1,html-keyboard-response,50,121226,0.0-1.6-0.49,anon_subject_273,659f04805339f753c1b65235,65a03edbe1f78d9853e38d4a,0.06950995915245839,True,6,session-65a03fbee4532
1271,Could someone find an alligator under their bed?,1,practice,1,1,html-keyboard-response,51,122498,0.0-1.6-0.50,anon_subject_273,659f04805339f753c1b65235,65a03edbe1f78d9853e38d4a,0.06950995915245839,True,6,session-65a03fbee4532
1479,Could someone pour a glass of honey?,1,practice,1,1,html-keyboard-response,52,123977,0.0-1.6-0.51,anon_subject_273,659f04805339f753c1b65235,65a03edbe1f78d9853e38d4a,0.06950995915245839,True,6,session-65a03fbee4532
759,Could someone put the moon in a soda can?,0,practice,0,1,html-keyboard-response,53,124736,0.0-1.6-0.52,anon_subject_273,659f04805339f753c1b65235,65a03edbe1f78d9853e38d4a,0.06950995915245839,True,6,session-65a03fbee4532
1713,Could someone lock a door with a day?,0,practice,0,1,html-keyboard-response,54,126450,0.0-1.6-0.53,anon_subject_273,659f04805339f753c1b65235,65a03edbe1f78d9853e38d4a,0.06950995915245839,True,6,session-65a03fbee4532
1014,Could someone eat vegetables for dinner?,1,practice,1,1,html-keyboard-response,55,127465,0.0-1.6-0.54,anon_subject_273,659f04805339f753c1b65235,65a03edbe1f78d9853e38d4a,0.06950995915245839,True,6,session-65a03fbee4532
992,Could someone smash a pumpkin with sadness?,0,practice,0,1,html-keyboard-response,56,128457,0.0-1.6-0.55,anon_subject_273,659f04805339f753c1b65235,65a03edbe1f78d9853e38d4a,0.06950995915245839,True,6,session-65a03fbee4532
3030,Could someone drink a glass of water?,1,practice,1,1,html-keyboard-response,1,4844,0.0-1.0-0.0,anon_subject_148,659f04805339f753c1b65235,65a05a73420a02f3939b3822,0.47982684962880273,True,0,session-65a05aff81c21
2056,Could someone move furniture with their mind?,0,practice,0,1,html-keyboard-response,2,6901,0.0-1.0-0.1,anon_subject_148,659f04805339f753c1b65235,65a05a73420a02f3939b3822,0.47982684962880273,True,0,session-65a05aff81c21
4639,Could someone find an alligator under their bed?,1,practice,1,1,html-keyboard-response,3,11540,0.0-1.0-0.2,anon_subject_148,659f04805339f753c1b65235,65a05a73420a02f3939b3822,0.47982684962880273,True,0,session-65a05aff81c21
2608,Could someone pour a glass of honey?,1,practice,1,1,html-keyboard-response,4,14148,0.0-1.0-0.3,anon_subject_148,659f04805339f753c1b65235,65a05a73420a02f3939b3822,0.47982684962880273,True,0,session-65a05aff81c21
2583,Could someone put the moon in a soda can?,0,practice,0,1,html-keyboard-response,5,16731,0.0-1.0-0.4,anon_subject_148,659f04805339f753c1b65235,65a05a73420a02f3939b3822,0.47982684962880273,True,0,session-65a05aff81c21
2672,Could someone lock a door with a day?,0,practice,0,1,html-keyboard-response,6,19404,0.0-1.0-0.5,anon_subject_148,659f04805339f753c1b65235,65a05a73420a02f3939b3822,0.47982684962880273,True,0,session-65a05aff81c21
1768,Could someone eat vegetables for dinner?,1,practice,1,1,html-keyboard-response,7,21172,0.0-1.0-0.6,anon_subject_148,659f04805339f753c1b65235,65a05a73420a02f3939b3822,0.47982684962880273,True,0,session-65a05aff81c21
1784,Could someone smash a pumpkin with sadness?,0,practice,0,1,html-keyboard-response,8,22955,0.0-1.0-0.7,anon_subject_148,659f04805339f753c1b65235,65a05a73420a02f3939b3822,0.47982684962880273,True,0,session-65a05aff81c21
2606,Could someone drink a glass of water?,1,practice,1,1,html-keyboard-response,1,34081,0.0-1.0-0.0,anon_subject_182,659f04805339f753c1b65235,65a05af2d15130d9d4b37b82,0.9899203577273183,True,0,session-65a05bd669c7e
2377,Could someone move furniture with their mind?,1,practice,0,1,html-keyboard-response,2,36460,0.0-1.0-0.1,anon_subject_182,659f04805339f753c1b65235,65a05af2d15130d9d4b37b82,0.9899203577273183,False,0,session-65a05bd669c7e
2174,Could someone find an alligator under their bed?,1,practice,1,1,html-keyboard-response,3,38635,0.0-1.0-0.2,anon_subject_182,659f04805339f753c1b65235,65a05af2d15130d9d4b37b82,0.9899203577273183,True,0,session-65a05bd669c7e
2981,Could someone pour a glass of honey?,1,practice,1,1,html-keyboard-response,4,41617,0.0-1.0-0.3,anon_subject_182,659f04805339f753c1b65235,65a05af2d15130d9d4b37b82,0.9899203577273183,True,0,session-65a05bd669c7e
2328,Could someone put the moon in a soda can?,0,practice,0,1,html-keyboard-response,5,43947,0.0-1.0-0.4,anon_subject_182,659f04805339f753c1b65235,65a05af2d15130d9d4b37b82,0.9899203577273183,True,0,session-65a05bd669c7e
3516,Could someone lock a door with a day?,0,practice,0,1,html-keyboard-response,6,47464,0.0-1.0-0.5,anon_subject_182,659f04805339f753c1b65235,65a05af2d15130d9d4b37b82,0.9899203577273183,True,0,session-65a05bd669c7e
2261,Could someone eat vegetables for dinner?,1,practice,1,1,html-keyboard-response,7,49725,0.0-1.0-0.6,anon_subject_182,659f04805339f753c1b65235,65a05af2d15130d9d4b37b82,0.9899203577273183,True,0,session-65a05bd669c7e
3357,Could someone smash a pumpkin with sadness?,1,practice,0,1,html-keyboard-response,8,53083,0.0-1.0-0.7,anon_subject_182,659f04805339f753c1b65235,65a05af2d15130d9d4b37b82,0.9899203577273183,False,0,session-65a05bd669c7e
4296,Could someone drink a glass of water?,1,practice,1,1,html-keyboard-response,9,63723,0.0-1.1-0.8,anon_subject_182,659f04805339f753c1b65235,65a05af2d15130d9d4b37b82,0.9899203577273183,True,1,session-65a05bd669c7e
1542,Could someone move furniture with their mind?,1,practice,0,1,html-keyboard-response,10,65265,0.0-1.1-0.9,anon_subject_182,659f04805339f753c1b65235,65a05af2d15130d9d4b37b82,0.9899203577273183,False,1,session-65a05bd669c7e
3188,Could someone find an alligator under their bed?,1,practice,1,1,html-keyboard-response,11,68455,0.0-1.1-0.10,anon_subject_182,659f04805339f753c1b65235,65a05af2d15130d9d4b37b82,0.9899203577273183,True,1,session-65a05bd669c7e
3621,Could someone pour a glass of honey?,1,practice,1,1,html-keyboard-response,12,72077,0.0-1.1-0.11,anon_subject_182,659f04805339f753c1b65235,65a05af2d15130d9d4b37b82,0.9899203577273183,True,1,session-65a05bd669c7e
2015,Could someone put the moon in a soda can?,0,practice,0,1,html-keyboard-response,13,74093,0.0-1.1-0.12,anon_subject_182,659f04805339f753c1b65235,65a05af2d15130d9d4b37b82,0.9899203577273183,True,1,session-65a05bd669c7e
2864,Could someone lock a door with a day?,0,practice,0,1,html-keyboard-response,14,76958,0.0-1.1-0.13,anon_subject_182,659f04805339f753c1b65235,65a05af2d15130d9d4b37b82,0.9899203577273183,True,1,session-65a05bd669c7e
1941,Could someone eat vegetables for dinner?,1,practice,1,1,html-keyboard-response,15,78900,0.0-1.1-0.14,anon_subject_182,659f04805339f753c1b65235,65a05af2d15130d9d4b37b82,0.9899203577273183,True,1,session-65a05bd669c7e
1173,Could someone smash a pumpkin with sadness?,0,practice,0,1,html-keyboard-response,16,80075,0.0-1.1-0.15,anon_subject_182,659f04805339f753c1b65235,65a05af2d15130d9d4b37b82,0.9899203577273183,True,1,session-65a05bd669c7e
1611,Could someone drink a glass of water?,1,practice,1,1,html-keyboard-response,17,86987,0.0-1.2-0.16,anon_subject_182,659f04805339f753c1b65235,65a05af2d15130d9d4b37b82,0.9899203577273183,True,2,session-65a05bd669c7e
1748,Could someone move furniture with their mind?,0,practice,0,1,html-keyboard-response,18,88735,0.0-1.2-0.17,anon_subject_182,659f04805339f753c1b65235,65a05af2d15130d9d4b37b82,0.9899203577273183,True,2,session-65a05bd669c7e
1147,Could someone find an alligator under their bed?,0,practice,1,1,html-keyboard-response,19,89883,0.0-1.2-0.18,anon_subject_182,659f04805339f753c1b65235,65a05af2d15130d9d4b37b82,0.9899203577273183,False,2,session-65a05bd669c7e
942,Could someone pour a glass of honey?,0,practice,1,1,html-keyboard-response,20,90825,0.0-1.2-0.19,anon_subject_182,659f04805339f753c1b65235,65a05af2d15130d9d4b37b82,0.9899203577273183,False,2,session-65a05bd669c7e
1070,Could someone put the moon in a soda can?,0,practice,0,1,html-keyboard-response,21,91896,0.0-1.2-0.20,anon_subject_182,659f04805339f753c1b65235,65a05af2d15130d9d4b37b82,0.9899203577273183,True,2,session-65a05bd669c7e
1014,Could someone lock a door with a day?,0,practice,0,1,html-keyboard-response,22,92911,0.0-1.2-0.21,anon_subject_182,659f04805339f753c1b65235,65a05af2d15130d9d4b37b82,0.9899203577273183,True,2,session-65a05bd669c7e
2415,Could someone eat vegetables for dinner?,1,practice,1,1,html-keyboard-response,23,95326,0.0-1.2-0.22,anon_subject_182,659f04805339f753c1b65235,65a05af2d15130d9d4b37b82,0.9899203577273183,True,2,session-65a05bd669c7e
1360,Could someone smash a pumpkin with sadness?,0,practice,0,1,html-keyboard-response,24,96687,0.0-1.2-0.23,anon_subject_182,659f04805339f753c1b65235,65a05af2d15130d9d4b37b82,0.9899203577273183,True,2,session-65a05bd669c7e
3376,Could someone drink a glass of water?,1,practice,1,1,html-keyboard-response,25,111734,0.0-1.3-0.24,anon_subject_182,659f04805339f753c1b65235,65a05af2d15130d9d4b37b82,0.9899203577273183,True,3,session-65a05bd669c7e
4490,Could someone move furniture with their mind?,0,practice,0,1,html-keyboard-response,26,116226,0.0-1.3-0.25,anon_subject_182,659f04805339f753c1b65235,65a05af2d15130d9d4b37b82,0.9899203577273183,True,3,session-65a05bd669c7e
2448,Could someone find an alligator under their bed?,1,practice,1,1,html-keyboard-response,27,118675,0.0-1.3-0.26,anon_subject_182,659f04805339f753c1b65235,65a05af2d15130d9d4b37b82,0.9899203577273183,True,3,session-65a05bd669c7e
2598,Could someone pour a glass of honey?,1,practice,1,1,html-keyboard-response,28,121274,0.0-1.3-0.27,anon_subject_182,659f04805339f753c1b65235,65a05af2d15130d9d4b37b82,0.9899203577273183,True,3,session-65a05bd669c7e
1380,Could someone put the moon in a soda can?,0,practice,0,1,html-keyboard-response,29,122654,0.0-1.3-0.28,anon_subject_182,659f04805339f753c1b65235,65a05af2d15130d9d4b37b82,0.9899203577273183,True,3,session-65a05bd669c7e
1987,Could someone lock a door with a day?,0,practice,0,1,html-keyboard-response,30,124642,0.0-1.3-0.29,anon_subject_182,659f04805339f753c1b65235,65a05af2d15130d9d4b37b82,0.9899203577273183,True,3,session-65a05bd669c7e
975,Could someone eat vegetables for dinner?,1,practice,1,1,html-keyboard-response,31,125618,0.0-1.3-0.30,anon_subject_182,659f04805339f753c1b65235,65a05af2d15130d9d4b37b82,0.9899203577273183,True,3,session-65a05bd669c7e
1057,Could someone smash a pumpkin with sadness?,0,practice,0,1,html-keyboard-response,32,126675,0.0-1.3-0.31,anon_subject_182,659f04805339f753c1b65235,65a05af2d15130d9d4b37b82,0.9899203577273183,True,3,session-65a05bd669c7e
3480,Could someone drink a glass of water?,1,practice,1,1,html-keyboard-response,1,13633,0.0-1.0-0.0,anon_subject_283,659f04805339f753c1b65235,65a0472810105f4dafafadc7,0.10775709584813598,True,0,session-65a0481a49e7f
2781,Could someone move furniture with their mind?,0,practice,0,1,html-keyboard-response,2,16417,0.0-1.0-0.1,anon_subject_283,659f04805339f753c1b65235,65a0472810105f4dafafadc7,0.10775709584813598,True,0,session-65a0481a49e7f
3462,Could someone find an alligator under their bed?,1,practice,1,1,html-keyboard-response,3,19880,0.0-1.0-0.2,anon_subject_283,659f04805339f753c1b65235,65a0472810105f4dafafadc7,0.10775709584813598,True,0,session-65a0481a49e7f
2993,Could someone pour a glass of honey?,1,practice,1,1,html-keyboard-response,4,22875,0.0-1.0-0.3,anon_subject_283,659f04805339f753c1b65235,65a0472810105f4dafafadc7,0.10775709584813598,True,0,session-65a0481a49e7f
4168,Could someone put the moon in a soda can?,0,practice,0,1,html-keyboard-response,5,27044,0.0-1.0-0.4,anon_subject_283,659f04805339f753c1b65235,65a0472810105f4dafafadc7,0.10775709584813598,True,0,session-65a0481a49e7f
2936,Could someone lock a door with a day?,0,practice,0,1,html-keyboard-response,6,29982,0.0-1.0-0.5,anon_subject_283,659f04805339f753c1b65235,65a0472810105f4dafafadc7,0.10775709584813598,True,0,session-65a0481a49e7f
3136,Could someone eat vegetables for dinner?,1,practice,1,1,html-keyboard-response,7,33119,0.0-1.0-0.6,anon_subject_283,659f04805339f753c1b65235,65a0472810105f4dafafadc7,0.10775709584813598,True,0,session-65a0481a49e7f
5273,Could someone smash a pumpkin with sadness?,1,practice,0,1,html-keyboard-response,8,38395,0.0-1.0-0.7,anon_subject_283,659f04805339f753c1b65235,65a0472810105f4dafafadc7,0.10775709584813598,False,0,session-65a0481a49e7f
4358,Could someone drink a glass of water?,1,practice,1,1,html-keyboard-response,9,47321,0.0-1.1-0.8,anon_subject_283,659f04805339f753c1b65235,65a0472810105f4dafafadc7,0.10775709584813598,True,1,session-65a0481a49e7f
1696,Could someone move furniture with their mind?,0,practice,0,1,html-keyboard-response,10,49019,0.0-1.1-0.9,anon_subject_283,659f04805339f753c1b65235,65a0472810105f4dafafadc7,0.10775709584813598,True,1,session-65a0481a49e7f
1377,Could someone find an alligator under their bed?,1,practice,1,1,html-keyboard-response,11,50398,0.0-1.1-0.10,anon_subject_283,659f04805339f753c1b65235,65a0472810105f4dafafadc7,0.10775709584813598,True,1,session-65a0481a49e7f
1567,Could someone pour a glass of honey?,1,practice,1,1,html-keyboard-response,12,51966,0.0-1.1-0.11,anon_subject_283,659f04805339f753c1b65235,65a0472810105f4dafafadc7,0.10775709584813598,True,1,session-65a0481a49e7f
1778,Could someone put the moon in a soda can?,1,practice,0,1,html-keyboard-response,13,53746,0.0-1.1-0.12,anon_subject_283,659f04805339f753c1b65235,65a0472810105f4dafafadc7,0.10775709584813598,False,1,session-65a0481a49e7f
2742,Could someone lock a door with a day?,0,practice,0,1,html-keyboard-response,14,56489,0.0-1.1-0.13,anon_subject_283,659f04805339f753c1b65235,65a0472810105f4dafafadc7,0.10775709584813598,True,1,session-65a0481a49e7f
1186,Could someone eat vegetables for dinner?,1,practice,1,1,html-keyboard-response,15,57676,0.0-1.1-0.14,anon_subject_283,659f04805339f753c1b65235,65a0472810105f4dafafadc7,0.10775709584813598,True,1,session-65a0481a49e7f
1545,Could someone smash a pumpkin with sadness?,0,practice,0,1,html-keyboard-response,16,59223,0.0-1.1-0.15,anon_subject_283,659f04805339f753c1b65235,65a0472810105f4dafafadc7,0.10775709584813598,True,1,session-65a0481a49e7f
2814,Could someone drink a glass of water?,1,practice,1,1,html-keyboard-response,17,68390,0.0-1.2-0.16,anon_subject_283,659f04805339f753c1b65235,65a0472810105f4dafafadc7,0.10775709584813598,True,2,session-65a0481a49e7f
8832,Could someone move furniture with their mind?,0,practice,0,1,html-keyboard-response,18,77223,0.0-1.2-0.17,anon_subject_283,659f04805339f753c1b65235,65a0472810105f4dafafadc7,0.10775709584813598,True,2,session-65a0481a49e7f
9998,Could someone find an alligator under their bed?,1,practice,1,1,html-keyboard-response,19,87222,0.0-1.2-0.18,anon_subject_283,659f04805339f753c1b65235,65a0472810105f4dafafadc7,0.10775709584813598,True,2,session-65a0481a49e7f
6532,Could someone pour a glass of honey?,0,practice,1,1,html-keyboard-response,20,93755,0.0-1.2-0.19,anon_subject_283,659f04805339f753c1b65235,65a0472810105f4dafafadc7,0.10775709584813598,False,2,session-65a0481a49e7f
1045,Could someone put the moon in a soda can?,0,practice,0,1,html-keyboard-response,21,94802,0.0-1.2-0.20,anon_subject_283,659f04805339f753c1b65235,65a0472810105f4dafafadc7,0.10775709584813598,True,2,session-65a0481a49e7f
217,Could someone lock a door with a day?,0,practice,0,1,html-keyboard-response,22,95020,0.0-1.2-0.21,anon_subject_283,659f04805339f753c1b65235,65a0472810105f4dafafadc7,0.10775709584813598,True,2,session-65a0481a49e7f
900,Could someone eat vegetables for dinner?,1,practice,1,1,html-keyboard-response,23,95922,0.0-1.2-0.22,anon_subject_283,659f04805339f753c1b65235,65a0472810105f4dafafadc7,0.10775709584813598,True,2,session-65a0481a49e7f
1313,Could someone smash a pumpkin with sadness?,0,practice,0,1,html-keyboard-response,24,97236,0.0-1.2-0.23,anon_subject_283,659f04805339f753c1b65235,65a0472810105f4dafafadc7,0.10775709584813598,True,2,session-65a0481a49e7f
2088,Could someone drink a glass of water?,1,practice,1,1,html-keyboard-response,25,102188,0.0-1.3-0.24,anon_subject_283,659f04805339f753c1b65235,65a0472810105f4dafafadc7,0.10775709584813598,True,3,session-65a0481a49e7f
3582,Could someone move furniture with their mind?,0,practice,0,1,html-keyboard-response,26,105772,0.0-1.3-0.25,anon_subject_283,659f04805339f753c1b65235,65a0472810105f4dafafadc7,0.10775709584813598,True,3,session-65a0481a49e7f
4655,Could someone find an alligator under their bed?,0,practice,1,1,html-keyboard-response,27,110428,0.0-1.3-0.26,anon_subject_283,659f04805339f753c1b65235,65a0472810105f4dafafadc7,0.10775709584813598,False,3,session-65a0481a49e7f
1384,Could someone pour a glass of honey?,1,practice,1,1,html-keyboard-response,28,111813,0.0-1.3-0.27,anon_subject_283,659f04805339f753c1b65235,65a0472810105f4dafafadc7,0.10775709584813598,True,3,session-65a0481a49e7f
4227,Could someone put the moon in a soda can?,0,practice,0,1,html-keyboard-response,29,116041,0.0-1.3-0.28,anon_subject_283,659f04805339f753c1b65235,65a0472810105f4dafafadc7,0.10775709584813598,True,3,session-65a0481a49e7f
3228,Could someone lock a door with a day?,0,practice,0,1,html-keyboard-response,30,119271,0.0-1.3-0.29,anon_subject_283,659f04805339f753c1b65235,65a0472810105f4dafafadc7,0.10775709584813598,True,3,session-65a0481a49e7f
3190,Could someone eat vegetables for dinner?,1,practice,1,1,html-keyboard-response,31,122463,0.0-1.3-0.30,anon_subject_283,659f04805339f753c1b65235,65a0472810105f4dafafadc7,0.10775709584813598,True,3,session-65a0481a49e7f
1496,Could someone smash a pumpkin with sadness?,0,practice,0,1,html-keyboard-response,32,123961,0.0-1.3-0.31,anon_subject_283,659f04805339f753c1b65235,65a0472810105f4dafafadc7,0.10775709584813598,True,3,session-65a0481a49e7f
1805,Could someone drink a glass of water?,1,practice,1,1,html-keyboard-response,33,128954,0.0-1.4-0.32,anon_subject_283,659f04805339f753c1b65235,65a0472810105f4dafafadc7,0.10775709584813598,True,4,session-65a0481a49e7f
5274,Could someone move furniture with their mind?,0,practice,0,1,html-keyboard-response,34,134229,0.0-1.4-0.33,anon_subject_283,659f04805339f753c1b65235,65a0472810105f4dafafadc7,0.10775709584813598,True,4,session-65a0481a49e7f
5313,Could someone find an alligator under their bed?,1,practice,1,1,html-keyboard-response,35,139544,0.0-1.4-0.34,anon_subject_283,659f04805339f753c1b65235,65a0472810105f4dafafadc7,0.10775709584813598,True,4,session-65a0481a49e7f
2207,Could someone pour a glass of honey?,1,practice,1,1,html-keyboard-response,36,141752,0.0-1.4-0.35,anon_subject_283,659f04805339f753c1b65235,65a0472810105f4dafafadc7,0.10775709584813598,True,4,session-65a0481a49e7f
2709,Could someone put the moon in a soda can?,0,practice,0,1,html-keyboard-response,37,144462,0.0-1.4-0.36,anon_subject_283,659f04805339f753c1b65235,65a0472810105f4dafafadc7,0.10775709584813598,True,4,session-65a0481a49e7f
2058,Could someone lock a door with a day?,0,practice,0,1,html-keyboard-response,38,146522,0.0-1.4-0.37,anon_subject_283,659f04805339f753c1b65235,65a0472810105f4dafafadc7,0.10775709584813598,True,4,session-65a0481a49e7f
920,Could someone eat vegetables for dinner?,1,practice,1,1,html-keyboard-response,39,147443,0.0-1.4-0.38,anon_subject_283,659f04805339f753c1b65235,65a0472810105f4dafafadc7,0.10775709584813598,True,4,session-65a0481a49e7f
1132,Could someone smash a pumpkin with sadness?,0,practice,0,1,html-keyboard-response,40,148577,0.0-1.4-0.39,anon_subject_283,659f04805339f753c1b65235,65a0472810105f4dafafadc7,0.10775709584813598,True,4,session-65a0481a49e7f
4306,Could someone drink a glass of water?,1,practice,1,1,html-keyboard-response,1,16236,0.0-1.0-0.0,anon_subject_38,659f04805339f753c1b65235,65a05a7b731e49bdea1b960e,0.4296889899488068,True,0,session-65a05af29ed0e
1742,Could someone move furniture with their mind?,0,practice,0,1,html-keyboard-response,2,17979,0.0-1.0-0.1,anon_subject_38,659f04805339f753c1b65235,65a05a7b731e49bdea1b960e,0.4296889899488068,True,0,session-65a05af29ed0e
1711,Could someone find an alligator under their bed?,1,practice,1,1,html-keyboard-response,3,19691,0.0-1.0-0.2,anon_subject_38,659f04805339f753c1b65235,65a05a7b731e49bdea1b960e,0.4296889899488068,True,0,session-65a05af29ed0e
935,Could someone pour a glass of honey?,1,practice,1,1,html-keyboard-response,4,20626,0.0-1.0-0.3,anon_subject_38,659f04805339f753c1b65235,65a05a7b731e49bdea1b960e,0.4296889899488068,True,0,session-65a05af29ed0e
1209,Could someone put the moon in a soda can?,0,practice,0,1,html-keyboard-response,5,21836,0.0-1.0-0.4,anon_subject_38,659f04805339f753c1b65235,65a05a7b731e49bdea1b960e,0.4296889899488068,True,0,session-65a05af29ed0e
3287,Could someone lock a door with a day?,1,practice,0,1,html-keyboard-response,6,25123,0.0-1.0-0.5,anon_subject_38,659f04805339f753c1b65235,65a05a7b731e49bdea1b960e,0.4296889899488068,False,0,session-65a05af29ed0e
1150,Could someone eat vegetables for dinner?,1,practice,1,1,html-keyboard-response,7,26274,0.0-1.0-0.6,anon_subject_38,659f04805339f753c1b65235,65a05a7b731e49bdea1b960e,0.4296889899488068,True,0,session-65a05af29ed0e
1341,Could someone smash a pumpkin with sadness?,0,practice,0,1,html-keyboard-response,8,27615,0.0-1.0-0.7,anon_subject_38,659f04805339f753c1b65235,65a05a7b731e49bdea1b960e,0.4296889899488068,True,0,session-65a05af29ed0e
671,Could someone drink a glass of water?,1,practice,1,1,html-keyboard-response,9,30748,0.0-1.1-0.8,anon_subject_38,659f04805339f753c1b65235,65a05a7b731e49bdea1b960e,0.4296889899488068,True,1,session-65a05af29ed0e
2569,Could someone move furniture with their mind?,0,practice,0,1,html-keyboard-response,10,33317,0.0-1.1-0.9,anon_subject_38,659f04805339f753c1b65235,65a05a7b731e49bdea1b960e,0.4296889899488068,True,1,session-65a05af29ed0e
2015,Could someone find an alligator under their bed?,1,practice,1,1,html-keyboard-response,11,35333,0.0-1.1-0.10,anon_subject_38,659f04805339f753c1b65235,65a05a7b731e49bdea1b960e,0.4296889899488068,True,1,session-65a05af29ed0e
6883,Could someone pour a glass of honey?,1,practice,1,1,html-keyboard-response,12,42217,0.0-1.1-0.11,anon_subject_38,659f04805339f753c1b65235,65a05a7b731e49bdea1b960e,0.4296889899488068,True,1,session-65a05af29ed0e
1679,Could someone put the moon in a soda can?,0,practice,0,1,html-keyboard-response,13,43896,0.0-1.1-0.12,anon_subject_38,659f04805339f753c1b65235,65a05a7b731e49bdea1b960e,0.4296889899488068,True,1,session-65a05af29ed0e
2042,Could someone lock a door with a day?,0,practice,0,1,html-keyboard-response,14,45938,0.0-1.1-0.13,anon_subject_38,659f04805339f753c1b65235,65a05a7b731e49bdea1b960e,0.4296889899488068,True,1,session-65a05af29ed0e
704,Could someone eat vegetables for dinner?,1,practice,1,1,html-keyboard-response,15,46642,0.0-1.1-0.14,anon_subject_38,659f04805339f753c1b65235,65a05a7b731e49bdea1b960e,0.4296889899488068,True,1,session-65a05af29ed0e
763,Could someone smash a pumpkin with sadness?,0,practice,0,1,html-keyboard-response,16,47406,0.0-1.1-0.15,anon_subject_38,659f04805339f753c1b65235,65a05a7b731e49bdea1b960e,0.4296889899488068,True,1,session-65a05af29ed0e
1509,Could someone drink a glass of water?,1,practice,1,1,html-keyboard-response,1,14211,0.0-1.0-0.0,anon_subject_40,659f04805339f753c1b65235,65a05a56d046c4fd2b905550,0.8652360972420416,True,0,session-65a05ad846229
1323,Could someone move furniture with their mind?,0,practice,0,1,html-keyboard-response,2,15541,0.0-1.0-0.1,anon_subject_40,659f04805339f753c1b65235,65a05a56d046c4fd2b905550,0.8652360972420416,True,0,session-65a05ad846229
983,Could someone find an alligator under their bed?,0,practice,1,1,html-keyboard-response,3,16527,0.0-1.0-0.2,anon_subject_40,659f04805339f753c1b65235,65a05a56d046c4fd2b905550,0.8652360972420416,False,0,session-65a05ad846229
1235,Could someone pour a glass of honey?,1,practice,1,1,html-keyboard-response,4,17768,0.0-1.0-0.3,anon_subject_40,659f04805339f753c1b65235,65a05a56d046c4fd2b905550,0.8652360972420416,True,0,session-65a05ad846229
2068,Could someone put the moon in a soda can?,0,practice,0,1,html-keyboard-response,5,19843,0.0-1.0-0.4,anon_subject_40,659f04805339f753c1b65235,65a05a56d046c4fd2b905550,0.8652360972420416,True,0,session-65a05ad846229
1502,Could someone lock a door with a day?,0,practice,0,1,html-keyboard-response,6,21350,0.0-1.0-0.5,anon_subject_40,659f04805339f753c1b65235,65a05a56d046c4fd2b905550,0.8652360972420416,True,0,session-65a05ad846229
1136,Could someone eat vegetables for dinner?,1,practice,1,1,html-keyboard-response,7,22490,0.0-1.0-0.6,anon_subject_40,659f04805339f753c1b65235,65a05a56d046c4fd2b905550,0.8652360972420416,True,0,session-65a05ad846229
1432,Could someone smash a pumpkin with sadness?,0,practice,0,1,html-keyboard-response,8,23927,0.0-1.0-0.7,anon_subject_40,659f04805339f753c1b65235,65a05a56d046c4fd2b905550,0.8652360972420416,True,0,session-65a05ad846229
961,Could someone drink a glass of water?,1,practice,1,1,html-keyboard-response,9,28347,0.0-1.1-0.8,anon_subject_40,659f04805339f753c1b65235,65a05a56d046c4fd2b905550,0.8652360972420416,True,1,session-65a05ad846229
3572,Could someone move furniture with their mind?,0,practice,0,1,html-keyboard-response,10,31925,0.0-1.1-0.9,anon_subject_40,659f04805339f753c1b65235,65a05a56d046c4fd2b905550,0.8652360972420416,True,1,session-65a05ad846229
1445,Could someone find an alligator under their bed?,1,practice,1,1,html-keyboard-response,11,33374,0.0-1.1-0.10,anon_subject_40,659f04805339f753c1b65235,65a05a56d046c4fd2b905550,0.8652360972420416,True,1,session-65a05ad846229
2014,Could someone pour a glass of honey?,0,practice,1,1,html-keyboard-response,12,35391,0.0-1.1-0.11,anon_subject_40,659f04805339f753c1b65235,65a05a56d046c4fd2b905550,0.8652360972420416,False,1,session-65a05ad846229
918,Could someone put the moon in a soda can?,0,practice,0,1,html-keyboard-response,13,36312,0.0-1.1-0.12,anon_subject_40,659f04805339f753c1b65235,65a05a56d046c4fd2b905550,0.8652360972420416,True,1,session-65a05ad846229
1234,Could someone lock a door with a day?,0,practice,0,1,html-keyboard-response,14,37549,0.0-1.1-0.13,anon_subject_40,659f04805339f753c1b65235,65a05a56d046c4fd2b905550,0.8652360972420416,True,1,session-65a05ad846229
704,Could someone eat vegetables for dinner?,1,practice,1,1,html-keyboard-response,15,38258,0.0-1.1-0.14,anon_subject_40,659f04805339f753c1b65235,65a05a56d046c4fd2b905550,0.8652360972420416,True,1,session-65a05ad846229
842,Could someone smash a pumpkin with sadness?,0,practice,0,1,html-keyboard-response,16,39106,0.0-1.1-0.15,anon_subject_40,659f04805339f753c1b65235,65a05a56d046c4fd2b905550,0.8652360972420416,True,1,session-65a05ad846229
867,Could someone drink a glass of water?,1,practice,1,1,html-keyboard-response,17,42721,0.0-1.2-0.16,anon_subject_40,659f04805339f753c1b65235,65a05a56d046c4fd2b905550,0.8652360972420416,True,2,session-65a05ad846229
3467,Could someone move furniture with their mind?,0,practice,0,1,html-keyboard-response,18,46192,0.0-1.2-0.17,anon_subject_40,659f04805339f753c1b65235,65a05a56d046c4fd2b905550,0.8652360972420416,True,2,session-65a05ad846229
2807,Could someone find an alligator under their bed?,1,practice,1,1,html-keyboard-response,19,49002,0.0-1.2-0.18,anon_subject_40,659f04805339f753c1b65235,65a05a56d046c4fd2b905550,0.8652360972420416,True,2,session-65a05ad846229
1145,Could someone pour a glass of honey?,1,practice,1,1,html-keyboard-response,20,50149,0.0-1.2-0.19,anon_subject_40,659f04805339f753c1b65235,65a05a56d046c4fd2b905550,0.8652360972420416,True,2,session-65a05ad846229
982,Could someone put the moon in a soda can?,0,practice,0,1,html-keyboard-response,21,51135,0.0-1.2-0.20,anon_subject_40,659f04805339f753c1b65235,65a05a56d046c4fd2b905550,0.8652360972420416,True,2,session-65a05ad846229
2066,Could someone lock a door with a day?,0,practice,0,1,html-keyboard-response,22,53205,0.0-1.2-0.21,anon_subject_40,659f04805339f753c1b65235,65a05a56d046c4fd2b905550,0.8652360972420416,True,2,session-65a05ad846229
1345,Could someone eat vegetables for dinner?,1,practice,1,1,html-keyboard-response,23,54555,0.0-1.2-0.22,anon_subject_40,659f04805339f753c1b65235,65a05a56d046c4fd2b905550,0.8652360972420416,True,2,session-65a05ad846229
999,Could someone smash a pumpkin with sadness?,0,practice,0,1,html-keyboard-response,24,55559,0.0-1.2-0.23,anon_subject_40,659f04805339f753c1b65235,65a05a56d046c4fd2b905550,0.8652360972420416,True,2,session-65a05ad846229
5689,Could someone drink a glass of water?,1,practice,1,1,html-keyboard-response,1,41652,0.0-1.0-0.0,anon_subject_33,659f04805339f753c1b65235,65a05a71731e49bdea1b9608,0.8671376453229853,True,0,session-65a05b368f9c2
3311,Could someone move furniture with their mind?,0,practice,0,1,html-keyboard-response,2,44964,0.0-1.0-0.1,anon_subject_33,659f04805339f753c1b65235,65a05a71731e49bdea1b9608,0.8671376453229853,True,0,session-65a05b368f9c2
4560,Could someone find an alligator under their bed?,1,practice,1,1,html-keyboard-response,3,49524,0.0-1.0-0.2,anon_subject_33,659f04805339f753c1b65235,65a05a71731e49bdea1b9608,0.8671376453229853,True,0,session-65a05b368f9c2
3608,Could someone pour a glass of honey?,1,practice,1,1,html-keyboard-response,4,53132,0.0-1.0-0.3,anon_subject_33,659f04805339f753c1b65235,65a05a71731e49bdea1b9608,0.8671376453229853,True,0,session-65a05b368f9c2
4968,Could someone put the moon in a soda can?,0,practice,0,1,html-keyboard-response,5,58100,0.0-1.0-0.4,anon_subject_33,659f04805339f753c1b65235,65a05a71731e49bdea1b9608,0.8671376453229853,True,0,session-65a05b368f9c2
2816,Could someone lock a door with a day?,0,practice,0,1,html-keyboard-response,6,60916,0.0-1.0-0.5,anon_subject_33,659f04805339f753c1b65235,65a05a71731e49bdea1b9608,0.8671376453229853,True,0,session-65a05b368f9c2
3479,Could someone eat vegetables for dinner?,1,practice,1,1,html-keyboard-response,7,64396,0.0-1.0-0.6,anon_subject_33,659f04805339f753c1b65235,65a05a71731e49bdea1b9608,0.8671376453229853,True,0,session-65a05b368f9c2
4616,Could someone smash a pumpkin with sadness?,0,practice,0,1,html-keyboard-response,8,69012,0.0-1.0-0.7,anon_subject_33,659f04805339f753c1b65235,65a05a71731e49bdea1b9608,0.8671376453229853,True,0,session-65a05b368f9c2
4532,Could someone drink a glass of water?,1,practice,1,1,html-keyboard-response,1,24812,0.0-1.0-0.0,anon_subject_58,659f04805339f753c1b65235,65a05a766243e6d43e3848f3,0.1601628060619844,True,0,session-65a05b2792131
4262,Could someone move furniture with their mind?,0,practice,0,1,html-keyboard-response,2,29077,0.0-1.0-0.1,anon_subject_58,659f04805339f753c1b65235,65a05a766243e6d43e3848f3,0.1601628060619844,True,0,session-65a05b2792131
3177,Could someone find an alligator under their bed?,1,practice,1,1,html-keyboard-response,3,32257,0.0-1.0-0.2,anon_subject_58,659f04805339f753c1b65235,65a05a766243e6d43e3848f3,0.1601628060619844,True,0,session-65a05b2792131
2359,Could someone pour a glass of honey?,1,practice,1,1,html-keyboard-response,4,34617,0.0-1.0-0.3,anon_subject_58,659f04805339f753c1b65235,65a05a766243e6d43e3848f3,0.1601628060619844,True,0,session-65a05b2792131
2728,Could someone put the moon in a soda can?,0,practice,0,1,html-keyboard-response,5,37347,0.0-1.0-0.4,anon_subject_58,659f04805339f753c1b65235,65a05a766243e6d43e3848f3,0.1601628060619844,True,0,session-65a05b2792131
2560,Could someone lock a door with a day?,0,practice,0,1,html-keyboard-response,6,39909,0.0-1.0-0.5,anon_subject_58,659f04805339f753c1b65235,65a05a766243e6d43e3848f3,0.1601628060619844,True,0,session-65a05b2792131
2733,Could someone eat vegetables for dinner?,1,practice,1,1,html-keyboard-response,7,42644,0.0-1.0-0.6,anon_subject_58,659f04805339f753c1b65235,65a05a766243e6d43e3848f3,0.1601628060619844,True,0,session-65a05b2792131
2426,Could someone smash a pumpkin with sadness?,0,practice,0,1,html-keyboard-response,8,45072,0.0-1.0-0.7,anon_subject_58,659f04805339f753c1b65235,65a05a766243e6d43e3848f3,0.1601628060619844,True,0,session-65a05b2792131
3561,Could someone drink a glass of water?,1,practice,1,1,html-keyboard-response,1,20849,0.0-1.0-0.0,anon_subject_245,659f04805339f753c1b65235,65a0477b214275fb72e5c482,0.12949789192006866,True,0,session-65a047fa9445d
2178,Could someone move furniture with their mind?,0,practice,0,1,html-keyboard-response,2,23028,0.0-1.0-0.1,anon_subject_245,659f04805339f753c1b65235,65a0477b214275fb72e5c482,0.12949789192006866,True,0,session-65a047fa9445d
1397,Could someone find an alligator under their bed?,1,practice,1,1,html-keyboard-response,3,24426,0.0-1.0-0.2,anon_subject_245,659f04805339f753c1b65235,65a0477b214275fb72e5c482,0.12949789192006866,True,0,session-65a047fa9445d
1946,Could someone pour a glass of honey?,1,practice,1,1,html-keyboard-response,4,26372,0.0-1.0-0.3,anon_subject_245,659f04805339f753c1b65235,65a0477b214275fb72e5c482,0.12949789192006866,True,0,session-65a047fa9445d
1862,Could someone put the moon in a soda can?,0,practice,0,1,html-keyboard-response,5,28234,0.0-1.0-0.4,anon_subject_245,659f04805339f753c1b65235,65a0477b214275fb72e5c482,0.12949789192006866,True,0,session-65a047fa9445d
2242,Could someone lock a door with a day?,0,practice,0,1,html-keyboard-response,6,30476,0.0-1.0-0.5,anon_subject_245,659f04805339f753c1b65235,65a0477b214275fb72e5c482,0.12949789192006866,True,0,session-65a047fa9445d
1388,Could someone eat vegetables for dinner?,1,practice,1,1,html-keyboard-response,7,31865,0.0-1.0-0.6,anon_subject_245,659f04805339f753c1b65235,65a0477b214275fb72e5c482,0.12949789192006866,True,0,session-65a047fa9445d
1715,Could someone smash a pumpkin with sadness?,0,practice,0,1,html-keyboard-response,8,33580,0.0-1.0-0.7,anon_subject_245,659f04805339f753c1b65235,65a0477b214275fb72e5c482,0.12949789192006866,True,0,session-65a047fa9445d
1383,Could someone drink a glass of water?,1,practice,1,1,html-keyboard-response,1,7274,0.0-1.0-0.0,anon_subject_220,659f04805339f753c1b65235,65a047a30f99dc411697c56b,0.15072385912554465,True,0,session-65a047f5f2438
1260,Could someone move furniture with their mind?,0,practice,0,1,html-keyboard-response,2,8534,0.0-1.0-0.1,anon_subject_220,659f04805339f753c1b65235,65a047a30f99dc411697c56b,0.15072385912554465,True,0,session-65a047f5f2438
1630,Could someone find an alligator under their bed?,1,practice,1,1,html-keyboard-response,3,10165,0.0-1.0-0.2,anon_subject_220,659f04805339f753c1b65235,65a047a30f99dc411697c56b,0.15072385912554465,True,0,session-65a047f5f2438
2095,Could someone pour a glass of honey?,1,practice,1,1,html-keyboard-response,4,12261,0.0-1.0-0.3,anon_subject_220,659f04805339f753c1b65235,65a047a30f99dc411697c56b,0.15072385912554465,True,0,session-65a047f5f2438
1202,Could someone put the moon in a soda can?,0,practice,0,1,html-keyboard-response,5,13463,0.0-1.0-0.4,anon_subject_220,659f04805339f753c1b65235,65a047a30f99dc411697c56b,0.15072385912554465,True,0,session-65a047f5f2438
2143,Could someone lock a door with a day?,0,practice,0,1,html-keyboard-response,6,15606,0.0-1.0-0.5,anon_subject_220,659f04805339f753c1b65235,65a047a30f99dc411697c56b,0.15072385912554465,True,0,session-65a047f5f2438
1199,Could someone eat vegetables for dinner?,1,practice,1,1,html-keyboard-response,7,16806,0.0-1.0-0.6,anon_subject_220,659f04805339f753c1b65235,65a047a30f99dc411697c56b,0.15072385912554465,True,0,session-65a047f5f2438
1860,Could someone smash a pumpkin with sadness?,0,practice,0,1,html-keyboard-response,8,18667,0.0-1.0-0.7,anon_subject_220,659f04805339f753c1b65235,65a047a30f99dc411697c56b,0.15072385912554465,True,0,session-65a047f5f2438
3007,Could someone drink a glass of water?,1,practice,1,1,html-keyboard-response,1,4631,0.0-1.0-0.0,anon_subject_62,659f04805339f753c1b65235,65a0476a6616b428b14127ba,0.34688334679888744,True,0,session-65a047d23846c
3007,Could someone move furniture with their mind?,0,practice,0,1,html-keyboard-response,2,7638,0.0-1.0-0.1,anon_subject_62,659f04805339f753c1b65235,65a0476a6616b428b14127ba,0.34688334679888744,True,0,session-65a047d23846c
1760,Could someone find an alligator under their bed?,1,practice,1,1,html-keyboard-response,3,9399,0.0-1.0-0.2,anon_subject_62,659f04805339f753c1b65235,65a0476a6616b428b14127ba,0.34688334679888744,True,0,session-65a047d23846c
1759,Could someone pour a glass of honey?,1,practice,1,1,html-keyboard-response,4,11158,0.0-1.0-0.3,anon_subject_62,659f04805339f753c1b65235,65a0476a6616b428b14127ba,0.34688334679888744,True,0,session-65a047d23846c
1232,Could someone put the moon in a soda can?,0,practice,0,1,html-keyboard-response,5,12391,0.0-1.0-0.4,anon_subject_62,659f04805339f753c1b65235,65a0476a6616b428b14127ba,0.34688334679888744,True,0,session-65a047d23846c
1295,Could someone lock a door with a day?,1,practice,0,1,html-keyboard-response,6,13687,0.0-1.0-0.5,anon_subject_62,659f04805339f753c1b65235,65a0476a6616b428b14127ba,0.34688334679888744,False,0,session-65a047d23846c
1135,Could someone eat vegetables for dinner?,0,practice,1,1,html-keyboard-response,7,14822,0.0-1.0-0.6,anon_subject_62,659f04805339f753c1b65235,65a0476a6616b428b14127ba,0.34688334679888744,False,0,session-65a047d23846c
2223,Could someone smash a pumpkin with sadness?,0,practice,0,1,html-keyboard-response,8,17046,0.0-1.0-0.7,anon_subject_62,659f04805339f753c1b65235,65a0476a6616b428b14127ba,0.34688334679888744,True,0,session-65a047d23846c
1495,Could someone drink a glass of water?,1,practice,1,1,html-keyboard-response,9,21191,0.0-1.1-0.8,anon_subject_62,659f04805339f753c1b65235,65a0476a6616b428b14127ba,0.34688334679888744,True,1,session-65a047d23846c
3776,Could someone move furniture with their mind?,0,practice,0,1,html-keyboard-response,10,24967,0.0-1.1-0.9,anon_subject_62,659f04805339f753c1b65235,65a0476a6616b428b14127ba,0.34688334679888744,True,1,session-65a047d23846c
1150,Could someone find an alligator under their bed?,1,practice,1,1,html-keyboard-response,11,26118,0.0-1.1-0.10,anon_subject_62,659f04805339f753c1b65235,65a0476a6616b428b14127ba,0.34688334679888744,True,1,session-65a047d23846c
1216,Could someone pour a glass of honey?,1,practice,1,1,html-keyboard-response,12,27334,0.0-1.1-0.11,anon_subject_62,659f04805339f753c1b65235,65a0476a6616b428b14127ba,0.34688334679888744,True,1,session-65a047d23846c
1136,Could someone put the moon in a soda can?,0,practice,0,1,html-keyboard-response,13,28470,0.0-1.1-0.12,anon_subject_62,659f04805339f753c1b65235,65a0476a6616b428b14127ba,0.34688334679888744,True,1,session-65a047d23846c
1392,Could someone lock a door with a day?,0,practice,0,1,html-keyboard-response,14,29862,0.0-1.1-0.13,anon_subject_62,659f04805339f753c1b65235,65a0476a6616b428b14127ba,0.34688334679888744,True,1,session-65a047d23846c
1520,Could someone eat vegetables for dinner?,1,practice,1,1,html-keyboard-response,15,31382,0.0-1.1-0.14,anon_subject_62,659f04805339f753c1b65235,65a0476a6616b428b14127ba,0.34688334679888744,True,1,session-65a047d23846c
1232,Could someone smash a pumpkin with sadness?,0,practice,0,1,html-keyboard-response,16,32615,0.0-1.1-0.15,anon_subject_62,659f04805339f753c1b65235,65a0476a6616b428b14127ba,0.34688334679888744,True,1,session-65a047d23846c
2965,Could someone drink a glass of water?,1,practice,1,1,html-keyboard-response,1,11293,0.0-1.0-0.0,anon_subject_222,659f04805339f753c1b65235,65a0478e30f6e0140ae07e12,0.9859379947080251,True,0,session-65a0480b04557
2416,Could someone move furniture with their mind?,0,practice,0,1,html-keyboard-response,2,13709,0.0-1.0-0.1,anon_subject_222,659f04805339f753c1b65235,65a0478e30f6e0140ae07e12,0.9859379947080251,True,0,session-65a0480b04557
1888,Could someone find an alligator under their bed?,0,practice,1,1,html-keyboard-response,3,15597,0.0-1.0-0.2,anon_subject_222,659f04805339f753c1b65235,65a0478e30f6e0140ae07e12,0.9859379947080251,False,0,session-65a0480b04557
2384,Could someone pour a glass of honey?,1,practice,1,1,html-keyboard-response,4,17981,0.0-1.0-0.3,anon_subject_222,659f04805339f753c1b65235,65a0478e30f6e0140ae07e12,0.9859379947080251,True,0,session-65a0480b04557
1744,Could someone put the moon in a soda can?,0,practice,0,1,html-keyboard-response,5,19725,0.0-1.0-0.4,anon_subject_222,659f04805339f753c1b65235,65a0478e30f6e0140ae07e12,0.9859379947080251,True,0,session-65a0480b04557
2807,Could someone lock a door with a day?,0,practice,0,1,html-keyboard-response,6,22533,0.0-1.0-0.5,anon_subject_222,659f04805339f753c1b65235,65a0478e30f6e0140ae07e12,0.9859379947080251,True,0,session-65a0480b04557
1856,Could someone eat vegetables for dinner?,1,practice,1,1,html-keyboard-response,7,24389,0.0-1.0-0.6,anon_subject_222,659f04805339f753c1b65235,65a0478e30f6e0140ae07e12,0.9859379947080251,True,0,session-65a0480b04557
2055,Could someone smash a pumpkin with sadness?,0,practice,0,1,html-keyboard-response,8,26445,0.0-1.0-0.7,anon_subject_222,659f04805339f753c1b65235,65a0478e30f6e0140ae07e12,0.9859379947080251,True,0,session-65a0480b04557
1986,Could someone drink a glass of water?,1,practice,1,1,html-keyboard-response,9,31277,0.0-1.1-0.8,anon_subject_222,659f04805339f753c1b65235,65a0478e30f6e0140ae07e12,0.9859379947080251,True,1,session-65a0480b04557
3608,Could someone move furniture with their mind?,0,practice,0,1,html-keyboard-response,10,34885,0.0-1.1-0.9,anon_subject_222,659f04805339f753c1b65235,65a0478e30f6e0140ae07e12,0.9859379947080251,True,1,session-65a0480b04557
5671,Could someone find an alligator under their bed?,1,practice,1,1,html-keyboard-response,11,40556,0.0-1.1-0.10,anon_subject_222,659f04805339f753c1b65235,65a0478e30f6e0140ae07e12,0.9859379947080251,True,1,session-65a0480b04557
1280,Could someone pour a glass of honey?,1,practice,1,1,html-keyboard-response,12,41837,0.0-1.1-0.11,anon_subject_222,659f04805339f753c1b65235,65a0478e30f6e0140ae07e12,0.9859379947080251,True,1,session-65a0480b04557
1399,Could someone put the moon in a soda can?,0,practice,0,1,html-keyboard-response,13,43236,0.0-1.1-0.12,anon_subject_222,659f04805339f753c1b65235,65a0478e30f6e0140ae07e12,0.9859379947080251,True,1,session-65a0480b04557
1056,Could someone lock a door with a day?,0,practice,0,1,html-keyboard-response,14,44292,0.0-1.1-0.13,anon_subject_222,659f04805339f753c1b65235,65a0478e30f6e0140ae07e12,0.9859379947080251,True,1,session-65a0480b04557
1728,Could someone eat vegetables for dinner?,1,practice,1,1,html-keyboard-response,15,46020,0.0-1.1-0.14,anon_subject_222,659f04805339f753c1b65235,65a0478e30f6e0140ae07e12,0.9859379947080251,True,1,session-65a0480b04557
1400,Could someone smash a pumpkin with sadness?,0,practice,0,1,html-keyboard-response,16,47420,0.0-1.1-0.15,anon_subject_222,659f04805339f753c1b65235,65a0478e30f6e0140ae07e12,0.9859379947080251,True,1,session-65a0480b04557
1295,Could someone drink a glass of water?,1,practice,1,1,html-keyboard-response,1,7872,0.0-1.0-0.0,anon_subject_65,659f04805339f753c1b65235,65a03ec1e9530f6f213f1f98,0.4583006771593543,True,0,session-65a03f51bc127
1019,Could someone move furniture with their mind?,0,practice,0,1,html-keyboard-response,2,8892,0.0-1.0-0.1,anon_subject_65,659f04805339f753c1b65235,65a03ec1e9530f6f213f1f98,0.4583006771593543,True,0,session-65a03f51bc127
1343,Could someone find an alligator under their bed?,1,practice,1,1,html-keyboard-response,3,10236,0.0-1.0-0.2,anon_subject_65,659f04805339f753c1b65235,65a03ec1e9530f6f213f1f98,0.4583006771593543,True,0,session-65a03f51bc127
1622,Could someone pour a glass of honey?,1,practice,1,1,html-keyboard-response,4,11858,0.0-1.0-0.3,anon_subject_65,659f04805339f753c1b65235,65a03ec1e9530f6f213f1f98,0.4583006771593543,True,0,session-65a03f51bc127
1242,Could someone put the moon in a soda can?,0,practice,0,1,html-keyboard-response,5,13100,0.0-1.0-0.4,anon_subject_65,659f04805339f753c1b65235,65a03ec1e9530f6f213f1f98,0.4583006771593543,True,0,session-65a03f51bc127
1733,Could someone lock a door with a day?,0,practice,0,1,html-keyboard-response,6,14834,0.0-1.0-0.5,anon_subject_65,659f04805339f753c1b65235,65a03ec1e9530f6f213f1f98,0.4583006771593543,True,0,session-65a03f51bc127
989,Could someone eat vegetables for dinner?,1,practice,1,1,html-keyboard-response,7,15823,0.0-1.0-0.6,anon_subject_65,659f04805339f753c1b65235,65a03ec1e9530f6f213f1f98,0.4583006771593543,True,0,session-65a03f51bc127
1519,Could someone smash a pumpkin with sadness?,1,practice,0,1,html-keyboard-response,8,17343,0.0-1.0-0.7,anon_subject_65,659f04805339f753c1b65235,65a03ec1e9530f6f213f1f98,0.4583006771593543,False,0,session-65a03f51bc127
4329,Could someone drink a glass of water?,1,practice,1,1,html-keyboard-response,9,25969,0.0-1.1-0.8,anon_subject_65,659f04805339f753c1b65235,65a03ec1e9530f6f213f1f98,0.4583006771593543,True,1,session-65a03f51bc127
1445,Could someone move furniture with their mind?,0,practice,0,1,html-keyboard-response,10,27414,0.0-1.1-0.9,anon_subject_65,659f04805339f753c1b65235,65a03ec1e9530f6f213f1f98,0.4583006771593543,True,1,session-65a03f51bc127
1779,Could someone find an alligator under their bed?,1,practice,1,1,html-keyboard-response,11,29194,0.0-1.1-0.10,anon_subject_65,659f04805339f753c1b65235,65a03ec1e9530f6f213f1f98,0.4583006771593543,True,1,session-65a03f51bc127
2691,Could someone pour a glass of honey?,1,practice,1,1,html-keyboard-response,12,31885,0.0-1.1-0.11,anon_subject_65,659f04805339f753c1b65235,65a03ec1e9530f6f213f1f98,0.4583006771593543,True,1,session-65a03f51bc127
1285,Could someone put the moon in a soda can?,0,practice,0,1,html-keyboard-response,13,33171,0.0-1.1-0.12,anon_subject_65,659f04805339f753c1b65235,65a03ec1e9530f6f213f1f98,0.4583006771593543,True,1,session-65a03f51bc127
2435,Could someone lock a door with a day?,0,practice,0,1,html-keyboard-response,14,35606,0.0-1.1-0.13,anon_subject_65,659f04805339f753c1b65235,65a03ec1e9530f6f213f1f98,0.4583006771593543,True,1,session-65a03f51bc127
959,Could someone eat vegetables for dinner?,1,practice,1,1,html-keyboard-response,15,36566,0.0-1.1-0.14,anon_subject_65,659f04805339f753c1b65235,65a03ec1e9530f6f213f1f98,0.4583006771593543,True,1,session-65a03f51bc127
2770,Could someone smash a pumpkin with sadness?,0,practice,0,1,html-keyboard-response,16,39336,0.0-1.1-0.15,anon_subject_65,659f04805339f753c1b65235,65a03ec1e9530f6f213f1f98,0.4583006771593543,True,1,session-65a03f51bc127
1552,Could someone drink a glass of water?,1,practice,1,1,html-keyboard-response,1,11233,0.0-1.0-0.0,anon_subject_57,659f04805339f753c1b65235,65a0474397cef2e56e5feaeb,0.22416830333820004,True,0,session-65a047b4bcc4f
2008,Could someone move furniture with their mind?,0,practice,0,1,html-keyboard-response,2,13241,0.0-1.0-0.1,anon_subject_57,659f04805339f753c1b65235,65a0474397cef2e56e5feaeb,0.22416830333820004,True,0,session-65a047b4bcc4f
1654,Could someone find an alligator under their bed?,0,practice,1,1,html-keyboard-response,3,14895,0.0-1.0-0.2,anon_subject_57,659f04805339f753c1b65235,65a0474397cef2e56e5feaeb,0.22416830333820004,False,0,session-65a047b4bcc4f
1355,Could someone pour a glass of honey?,1,practice,1,1,html-keyboard-response,4,16251,0.0-1.0-0.3,anon_subject_57,659f04805339f753c1b65235,65a0474397cef2e56e5feaeb,0.22416830333820004,True,0,session-65a047b4bcc4f
