rt,trial_type,trial_index,time_elapsed,internal_node_id,subject_id,study_id,session_id,rng_seed,task_type,session_file_id,language,gender,feedback
15890,survey-text,46,115648,0.0-4.0,anon_subject_285,659f04805339f753c1b65235,65a03ef5ee5c94479846d5af,0.06914232995603098,survey,session-65a04185c5cb4,English,Male,
4831,survey-text,54,115273,0.0-4.0,anon_subject_30,659f04805339f753c1b65235,65a0471539341d75b93cf885,0.7930852442032413,survey,session-65a04795a47b9,english,,
19801,survey-text,54,118603,0.0-4.0,anon_subject_146,659f04805339f753c1b65235,65a047892086d07cc8439b7d,0.6874473965112899,survey,session-65a0480f36680,English,Male,Fun task/survey invite me to more 
5709,survey-text,54,99573,0.0-4.0,anon_subject_42,659f04805339f753c1b65235,65a0479e591c52695cdbe8c1,0.4290670587524601,survey,session-65a0480f911e6,english,male,
47573,survey-text,46,137976,0.0-4.0,anon_subject_28,659f04805339f753c1b65235,65a05a6f2bb7751b509056c3,0.23192453619459075,survey,session-65a05b470364e,English,female,The only question I found a little confusing was about baking a cake using a refrigerator. Some recipes call for the batter to be chilled in a refrigerator before baking. I know the refrigerator technically is not used for baking. :-)
17671,survey-text,78,228655,0.0-4.0,anon_subject_48,659f04805339f753c1b65235,65a05a84c58774cde45fed65,0.419133092128984,survey,session-65a05b7603cc7,English,female,
12898,survey-text,46,153589,0.0-4.0,anon_subject_75,659f04805339f753c1b65235,65a0478029b65b56eb97c721,0.27540834490166843,survey,session-65a04919e5681,English,Male,
6671,survey-text,46,116532,0.0-4.0,anon_subject_51,659f04805339f753c1b65235,65a03fae15177d3861dbe570,0.37630558641665357,survey,session-65a04040ce87a,English,Male,
14785,survey-text,54,345406,0.0-4.0,anon_subject_192,659f04805339f753c1b65235,65a02a8b15177d3861dbe02e,0.7261492057711199,survey,session-65a02c23dc123,English,Female,
41982,survey-text,46,131306,0.0-4.0,anon_subject_69,659f04805339f753c1b65235,65a0471c5068c51fec46d7ee,0.492064134132981,survey,session-65a047aba18b0,English,Male,"I feel like the ""hide a gift using concepts"" isn't cut an dry as it was meant to be."
10643,survey-text,46,86197,0.0-4.0,anon_subject_149,659f04805339f753c1b65235,65a0473a461451c85ed4f43e,0.9785815176210615,survey,session-65a0479944049,enlgish,female,this was fun - enjoyed it alot
8218,survey-text,46,119624,0.0-4.0,anon_subject_122,659f04805339f753c1b65235,65a03fd56bac4df6251b8e9a,0.2970422426465522,survey,session-65a0405d43889,English,Male,
10558,survey-text,46,90784,0.0-4.0,anon_subject_260,659f04805339f753c1b65235,65a05a7e0f99dc411697c9da,0.41642503139060016,survey,session-65a05ae85fd46,English,Male,
8505,survey-text,54,132157,0.0-4.0,anon_subject_18,659f04805339f753c1b65235,65a03fde5747bb3166d4efa7,0.22086302821812365,survey,session-65a0406e32d44,English,female,
14240,survey-text,46,104130,0.0-4.0,anon_subject_115,659f04805339f753c1b65235,65a03f5a9b6bc005fb6bdd8c,0.023534266892762945,survey,session-65a042c51f700,english,female,
9857,survey-text,94,200007,0.0-4.0,anon_subject_273,659f04805339f753c1b65235,65a03edbe1f78d9853e38d4a,0.06950995915245839,survey,session-65a03fbee4532,English,Female,
16682,survey-text,46,119689,0.0-4.0,anon_subject_148,659f04805339f753c1b65235,65a05a73420a02f3939b3822,0.47982684962880273,survey,session-65a05aff81c21,english,male,"No feedback, but have a nice day!"
11546,survey-text,70,210296,0.0-4.0,anon_subject_182,659f04805339f753c1b65235,65a05af2d15130d9d4b37b82,0.9899203577273183,survey,session-65a05bd669c7e,english,female,
9348,survey-text,78,225001,0.0-4.0,anon_subject_283,659f04805339f753c1b65235,65a0472810105f4dafafadc7,0.10775709584813598,survey,session-65a0481a49e7f,English,female,
7450,survey-text,54,103178,0.0-4.0,anon_subject_38,659f04805339f753c1b65235,65a05a7b731e49bdea1b960e,0.4296889899488068,survey,session-65a05af29ed0e,English,Female,
6146,survey-text,62,115833,0.0-4.0,anon_subject_40,659f04805339f753c1b65235,65a05a56d046c4fd2b905550,0.8652360972420416,survey,session-65a05ad846229,English,Female,
9748,survey-text,46,165510,0.0-4.0,anon_subject_33,659f04805339f753c1b65235,65a05a71731e49bdea1b9608,0.8671376453229853,survey,session-65a05b368f9c2,english,male,
38894,survey-text,46,164150,0.0-4.0,anon_subject_58,659f04805339f753c1b65235,65a05a766243e6d43e3848f3,0.1601628060619844,survey,session-65a05b2792131,English,male,:)
4953,survey-text,46,118269,0.0-4.0,anon_subject_245,659f04805339f753c1b65235,65a0477b214275fb72e5c482,0.12949789192006866,survey,session-65a047fa9445d,English,Male,
5935,survey-text,46,70459,0.0-4.0,anon_subject_220,659f04805339f753c1b65235,65a047a30f99dc411697c56b,0.15072385912554465,survey,session-65a047f5f2438,English,female,
8290,survey-text,54,95176,0.0-4.0,anon_subject_62,659f04805339f753c1b65235,65a0476a6616b428b14127ba,0.34688334679888744,survey,session-65a047d23846c,english,nonbinary,n/a
7781,survey-text,54,112898,0.0-4.0,anon_subject_222,659f04805339f753c1b65235,65a0478e30f6e0140ae07e12,0.9859379947080251,survey,session-65a0480b04557,English,male,
27863,survey-text,54,123347,0.0-4.0,anon_subject_65,659f04805339f753c1b65235,65a03ec1e9530f6f213f1f98,0.4583006771593543,survey,session-65a03f51bc127,English,non-binary,"you could definitely smash a pumpkin with sadness, not in the literal sense, but 'with sadness' could definitely just be describing the person being sad while smashing a pumpkin"
5522,survey-text,54,104218,0.0-4.0,anon_subject_57,659f04805339f753c1b65235,65a0474397cef2e56e5feaeb,0.22416830333820004,survey,session-65a047b4bcc4f,English,Male,
7550,survey-text,62,274724,0.0-4.0,anon_subject_153,659f04805339f753c1b65235,65a05a7a6451f41271c335ac,0.29939097638608025,survey,session-65a05bd004480,english,male,
16667,survey-text,78,200791,0.0-4.0,anon_subject_20,659f04805339f753c1b65235,65a03f9afbe002ebe6cd90eb,0.7855397335322527,survey,session-65a040818c85e,English,female,
28664,survey-text,46,181188,0.0-4.0,anon_subject_234,659f04805339f753c1b65235,65a02bb95f6b46129434f096,0.35162161587616536,survey,session-65a02cb5d867d,ENGLISH,MALE,
6682,survey-text,54,91851,0.0-4.0,anon_subject_13,659f04805339f753c1b65235,65a0470cb70cd6898be5c4b4,0.17572265766989936,survey,session-65a047712d1f3,english,male,thanks
8511,survey-text,70,178025,0.0-4.0,anon_subject_258,659f04805339f753c1b65235,65a02b49c799135a5fbddad4,0.5090755799922926,survey,session-65a02c1eef806,english,female,
10767,survey-text,46,104967,0.0-4.0,anon_subject_279,659f04805339f753c1b65235,65a03f90f26ea2d9988b753b,0.4453762110642303,survey,session-65a0400a61353,English,Female,
8232,survey-text,46,81689,0.0-4.0,anon_subject_91,659f04805339f753c1b65235,65a03ed5363e8fc9b18a7eb3,0.660096675978014,survey,session-65a03f362aff1,English,Female,
6645,survey-text,54,564596,0.0-4.0,anon_subject_128,659f04805339f753c1b65235,65a0474cd96f47480f33e5c0,0.02398083019733588,survey,session-65a04993420b1,English,Female,
13805,survey-text,46,166240,0.0-4.0,anon_subject_254,659f04805339f753c1b65235,65a05b6115177d3861dbec3f,0.07790554074160405,survey,session-65a05c1864ec6,English,Female,Fun survey
13441,survey-text,94,221862,0.0-4.0,anon_subject_276,659f04805339f753c1b65235,65a047ae9066460e83748fd6,0.527510709597748,survey,session-65a048afa58a6,English,Male,
6695,survey-text,62,149119,0.0-4.0,anon_subject_244,659f04805339f753c1b65235,65a05a5a731e49bdea1b9600,0.38751929832980925,survey,session-65a05bd000657,english,male,
5208,survey-text,54,101284,0.0-4.0,anon_subject_181,659f04805339f753c1b65235,65a03f701ffc042b4f545c75,0.26518176603136623,survey,session-65a03fec09389,english,female,
9991,survey-text,62,165908,0.0-4.0,anon_subject_107,659f04805339f753c1b65235,65a03f783e71fc9f72cd91c7,0.5210110424534102,survey,session-65a04033a0ec5,English,female,
28859,survey-text,78,295041,0.0-4.0,anon_subject_133,659f04805339f753c1b65235,65a04749f51e8f6fd7a743a3,0.5104510701590899,survey,session-65a048bb4a52b,English,Female,
8880,survey-text,102,297584,0.0-4.0,anon_subject_290,659f04805339f753c1b65235,65a03f302159acf46857ff8d,0.26138414994028847,survey,session-65a04067edcbf,english,male,
15827,survey-text,46,138154,0.0-4.0,anon_subject_34,659f04805339f753c1b65235,65a04790fcd1e50633ac35c2,0.7572490404532561,survey,session-65a04834c6250,English,Male,
10620,survey-text,46,156244,0.0-4.0,anon_subject_100,659f04805339f753c1b65235,65a03eb12526f0c2765ca39b,0.39447283722353355,survey,session-65a03f547a3c0,english,male,
23854,survey-text,46,169141,0.0-4.0,anon_subject_24,659f04805339f753c1b65235,65a03f64ee5c94479846d5d1,0.7502314815888207,survey,session-65a0402b0caee,English,Male,
57658,survey-text,62,341971,0.0-4.0,anon_subject_236,659f04805339f753c1b65235,65a03f17cb1340048e21034e,0.9355140316739947,survey,session-65a0408b98e5b,English,Female,That was interesting. The alligator under the bed was a tricky one.
15062,survey-text,46,146044,0.0-4.0,anon_subject_169,659f04805339f753c1b65235,65a05a60afefad5d38f372e2,0.28789187637557345,survey,session-65a05b175dd44,English,Male,War Eagle!
6359,survey-text,54,109118,0.0-4.0,anon_subject_39,659f04805339f753c1b65235,65a05a7097cef2e56e5ff016,0.9865838288692361,survey,session-65a05b056049a,English,Male,
80121,survey-text,78,243418,0.0-4.0,anon_subject_228,659f04805339f753c1b65235,65a02da2158e1166c55f4805,0.6331516146143021,survey,session-65a02eaac68f9,English,woman,"A few of your test questions are ambiguous! Yes, you could theoretically find an alligator under your bed in Florida, but you probably won't. Yes, you can pour a glass of honey, but you probably won't."
15127,survey-text,46,134515,0.0-4.0,anon_subject_208,659f04805339f753c1b65235,65a03ea3fc7c4acd585d5f99,0.9043168482406388,survey,session-65a03f3e9d711,English,,
5782,survey-text,54,119946,0.0-4.0,anon_subject_135,659f04805339f753c1b65235,65a027e846af5282e74c23ba,0.9562123336792084,survey,session-65a0288579c79,English,Male,
8223,survey-text,54,101132,0.0-4.0,anon_subject_108,659f04805339f753c1b65235,65a0472c5068c51fec46d7f4,0.669953994252998,survey,session-65a0479d56db7,English,Female,
18645,survey-text,54,155004,0.0-4.0,anon_subject_203,659f04805339f753c1b65235,65a05a80fcd1e50633ac3a85,0.03156731321970008,survey,session-65a05b3062cab,English,Male,None
63394,survey-text,54,240541,0.0-4.0,anon_subject_270,659f04805339f753c1b65235,65a05a98f34b5631810f80f0,0.19200286173063308,survey,session-65a05bae7c14a,English,female,"I did the first round of practice using the number pad for the zero. I'm not sure it worked properly. Fun study, though!"
6592,survey-text,78,177575,0.0-4.0,anon_subject_36,659f04805339f753c1b65235,65a03f18c9e1a662cc1f605f,0.8424170852455777,survey,session-65a040092721c,English,Male,
10831,survey-text,46,177010,0.0-4.0,anon_subject_195,659f04805339f753c1b65235,65a05a652a197f9cd83e47bd,0.08079297549991327,survey,session-65a05b3772d19,English,Non-binary,
11258,survey-text,70,159453,0.0-4.0,anon_subject_157,659f04805339f753c1b65235,65a05a7de68d1344f3d2b07e,0.07519901952352348,survey,session-65a05b2bcb6e1,English,Female,
9714,survey-text,70,188937,0.0-4.0,anon_subject_159,659f04805339f753c1b65235,65a0478f5068c51fec46d804,0.9366310111096849,survey,session-65a0486200e71,English,Male,None
34933,survey-text,46,110170,0.0-4.0,anon_subject_118,659f04805339f753c1b65235,65a03eb0264dee80cb4a91b9,0.9464230368279836,survey,session-65a03f313ede3,english,male,
8967,survey-text,46,83139,0.0-4.0,anon_subject_187,659f04805339f753c1b65235,65a04df36616b428b1412966,0.3409365989325661,survey,session-65a04e5cb9a86,English,nonbinary,n/a
18336,survey-text,62,200088,0.0-4.0,anon_subject_230,659f04805339f753c1b65235,65a027b43ac2f375865f4796,0.539422361423439,survey,session-65a028b8dfc73,English,Female,
6640,survey-text,54,132660,0.0-4.0,anon_subject_162,659f04805339f753c1b65235,65a03fb02a197f9cd83e4130,0.608887415889483,survey,session-65a0403f5a935,english,male,none thank you
9247,survey-text,46,110628,0.0-4.0,anon_subject_164,659f04805339f753c1b65235,65a03ef98320fc7c6257ab14,0.8302337997901403,survey,session-65a03f9950f9c,English,Male,
10323,survey-text,46,262017,0.0-4.0,anon_subject_184,659f04805339f753c1b65235,65a0481eba9f28bc37c44d6f,0.3633344649811525,survey,session-65a0492cd4f98,English,Male,
5243,survey-text,46,77262,0.0-4.0,anon_subject_2,659f04805339f753c1b65235,65a0473f6e869bf85df4d846,0.3390884251104017,survey,session-65a0479790b96,English,Male,
8203,survey-text,46,93939,0.0-4.0,anon_subject_3,659f04805339f753c1b65235,65a05a746f96899614f27aaf,0.6854585070917787,survey,session-65a05adad4275,English,Male,
117525,survey-text,54,334846,0.0-4.0,anon_subject_68,659f04805339f753c1b65235,65a047969066460e83748fd1,0.9549287625584775,survey,session-65a048efb8a49,English,Male,"Yes, I can lock a door with a day. In fact, I could do it in less than a minute!

I think your intent was to ask, ""Can someone lock a door USING a day?"" which would be impossible since days aren't physical objects.

Also no idea if a kite made of lead is possible or not"
10457,survey-text,46,117026,0.0-4.0,anon_subject_172,659f04805339f753c1b65235,65a02582395b2717c94c2371,0.9273621050172716,survey,session-65a02601b7232,English,Female,
6888,survey-text,46,62584,0.0-4.0,anon_subject_250,659f04805339f753c1b65235,65a05c955aba9e5f885bfc99,0.35229718550149713,survey,session-65a05d6160679,English,Male,
8077,survey-text,46,105383,0.0-4.0,anon_subject_158,659f04805339f753c1b65235,65a05a79c58774cde45fed62,0.5495041603427855,survey,session-65a05af008de2,english,male,
6075,survey-text,54,128057,0.0-4.0,anon_subject_47,659f04805339f753c1b65235,65a0245a6428f6802cf26fe3,0.5718226216142261,survey,session-65a024eeee8f2,English,Female,
8491,survey-text,62,129403,0.0-4.0,anon_subject_175,659f04805339f753c1b65235,65a05a64b70cd6898be5c9a8,0.8050535166364963,survey,session-65a05bffa391f,English,Female,
14605,survey-text,54,147380,0.0-4.0,anon_subject_251,659f04805339f753c1b65235,65a02a15eeee5416c5400a52,0.011360161522806056,survey,session-65a02ac49d097,English,woman,
10299,survey-text,46,113138,0.0-4.0,anon_subject_272,659f04805339f753c1b65235,65a0479eccba17a0c394abd1,0.8720480729364403,survey,session-65a0481e87e9e,English,Female,
8544,survey-text,46,133094,0.0-4.0,anon_subject_298,659f04805339f753c1b65235,65a0293d5aba9e5f885beff2,0.517775510437086,survey,session-65a029f633cbd,English,Female,
12923,survey-text,78,226576,0.0-4.0,anon_subject_282,659f04805339f753c1b65235,65a03fb16af24254f25d6062,0.08473310130444456,survey,session-65a040d034651,English,Female,
5706,survey-text,46,78758,0.0-4.0,anon_subject_145,659f04805339f753c1b65235,65a0476a9066460e83748fc9,0.8644873986616477,survey,session-65a047c1a123f,english,male,
10193,survey-text,54,131442,0.0-4.0,anon_subject_223,659f04805339f753c1b65235,65a05a7215917193ea8a6a91,0.6467911637902726,survey,session-65a05b06077fb,English,male,
16371,survey-text,46,184043,0.0-4.0,anon_subject_143,659f04805339f753c1b65235,65a05a7eab05057d2f5b2984,0.46747084098131486,survey,session-65a05b45ce19b,English,Non-Binary,These were funny!
10825,survey-text,46,145578,0.0-4.0,anon_subject_263,659f04805339f753c1b65235,65a05a895e58d51b4f3e4996,0.5364883509687399,survey,session-65a05b242a56d,english,female,
10670,survey-text,70,205140,0.0-4.0,anon_subject_211,659f04805339f753c1b65235,65a047999b6bc005fb6bdf88,0.4735783142253964,survey,session-65a04878e4015,English,Female,none
73938,survey-text,54,314026,0.0-4.0,anon_subject_289,659f04805339f753c1b65235,65a03ee90e6a0108526bdd44,0.4115867495775497,survey,session-65a04049c6111,english,female,"The practice question, ""could someone move furniture with their mind?"" I think it's possible but I had to put no to move on. "
8669,survey-text,54,136765,0.0-4.0,anon_subject_152,659f04805339f753c1b65235,65a03f1e6ba14dc8d40a4a56,0.9374795025563682,survey,session-65a03fc14f761,English,male,
6400,survey-text,46,95227,0.0-4.0,anon_subject_112,659f04805339f753c1b65235,65a02b703cf0fef29ad2a2f1,0.8018806011650006,survey,session-65a02bde687c3,English,Female,
10806,survey-text,46,73271,0.0-4.0,anon_subject_205,659f04805339f753c1b65235,65a05c0110105f4dafafb2b5,0.5711494623922899,survey,session-65a05c54d3666,English,Male,"Thanks for the fair pay, I appreciate it!"
16121,survey-text,62,145091,0.0-4.0,anon_subject_90,659f04805339f753c1b65235,65a0475c731e49bdea1b9120,0.24396108755305002,survey,session-65a047f9569f7,English,female,instructions were not very clear.
16475,survey-text,54,155135,0.0-4.0,anon_subject_109,659f04805339f753c1b65235,65a03fb2184037426b33ff3b,0.7895290688127601,survey,session-65a040636b16b,english,trans man,
32372,survey-text,46,184858,0.0-4.0,anon_subject_74,659f04805339f753c1b65235,65a02995943133561833f98c,0.3310450299104488,survey,session-65a02a8be0e9c,english,female,thank you
8900,survey-text,46,79022,0.0-4.0,anon_subject_259,659f04805339f753c1b65235,65a03eb46243e6d43e38417b,0.8235987904453146,survey,session-65a0420c6db58,English,Male,
14901,survey-text,46,169565,0.0-4.0,anon_subject_84,659f04805339f753c1b65235,65a05b72f34b5631810f8150,0.8472031216002167,survey,session-65a05c3d32c64,English,Male,
7517,survey-text,62,172813,0.0-4.0,anon_subject_9,659f04805339f753c1b65235,65a047693ac2f375865f4ece,0.708789351023108,survey,session-65a0481e99094,English,Male,
7927,survey-text,54,100541,0.0-4.0,anon_subject_226,659f04805339f753c1b65235,65a03f0c277118eefd0f3f52,0.025096151108051412,survey,session-65a03f7a50fce,English,Male,
9594,survey-text,46,98622,0.0-4.0,anon_subject_119,659f04805339f753c1b65235,65a03ecf835c6424ecc7517d,0.2558059281724403,survey,session-65a03f3be4b82,English,Female,
8619,survey-text,86,169935,0.0-4.0,anon_subject_106,659f04805339f753c1b65235,65a03eb054a913c61d775444,0.7723850737628328,survey,session-65a03f6958d7a,English,Female,
16455,survey-text,54,212604,0.0-4.0,anon_subject_267,659f04805339f753c1b65235,65a029ee7db586ea67a73956,0.9821607744647937,survey,session-65a02aeddfe8b,English,Male,
19031,survey-text,70,355051,0.0-4.0,anon_subject_246,659f04805339f753c1b65235,65a05a916e869bf85df4de0b,0.6412144368177903,survey,session-65a05c067ee90,31,Male,No.
11828,survey-text,54,116351,0.0-4.0,anon_subject_85,659f04805339f753c1b65235,65a05a7cfcd1e50633ac3a82,0.514869365049188,survey,session-65a05af758726,English,Male,Thanks
51276,survey-text,54,153941,0.0-4.0,anon_subject_103,659f04805339f753c1b65235,65a05a77f34b5631810f80ec,0.8631832628072968,survey,session-65a05ba5a4b39,english,male,"I believe in magic and spiritual powers. You told me I failed the practice, but I do believe someone could move furniture with their mind, as the Bodhisattvas are capable of such feats. "
11979,survey-text,46,96912,0.0-4.0,anon_subject_4,659f04805339f753c1b65235,65a05a6c6bac4df6251b9481,0.4978530388722371,survey,session-65a05b3256ccf,English,Male,
6304,survey-text,46,111302,0.0-4.0,anon_subject_77,659f04805339f753c1b65235,65a02a6c5f6b46129434efda,0.6796873871248637,survey,session-65a02aea6e162,English,Female,
5904,survey-text,70,169140,0.0-4.0,anon_subject_277,659f04805339f753c1b65235,65a05a8d85d169d8295bfc2e,0.6660816993511438,survey,session-65a05b3fdb663,English,Male,
12234,survey-text,54,197256,0.0-4.0,anon_subject_10,659f04805339f753c1b65235,65a04773bfcc66390994ad3f,0.7574550579166008,survey,session-65a048486c4aa,English,Female,
9635,survey-text,46,80828,0.0-4.0,anon_subject_11,659f04805339f753c1b65235,65a03f1d6d1220a64a0f3ff4,0.5507684894005975,survey,session-65a03f8ca85a8,English,female,
10232,survey-text,54,96496,0.0-4.0,anon_subject_174,659f04805339f753c1b65235,65a04730d96f47480f33e5b0,0.7964797461545801,survey,session-65a0479d78e5a,English,Male,
21121,survey-text,54,217766,0.0-4.0,anon_subject_265,659f04805339f753c1b65235,65a047ae5aba9e5f885bf764,0.9344200962146372,survey,session-65a048a77ad72,English,Male,
12341,survey-text,78,245501,0.0-4.0,anon_subject_275,659f04805339f753c1b65235,65a05a755747bb3166d4f5ff,0.7163995266817098,survey,session-65a05c784b652,English,female,
5869,survey-text,46,89894,0.0-4.0,anon_subject_32,659f04805339f753c1b65235,65a0479e05a2eebaddf4d4c7,0.8812474157906789,survey,session-65a048048b86b,English,Male,
4214,survey-text,46,81025,0.0-4.0,anon_subject_27,659f04805339f753c1b65235,65a047459066460e83748fbf,0.7419023631056343,survey,session-65a047a0b4a8a,english,male,
18297,survey-text,62,177854,0.0-4.0,anon_subject_233,659f04805339f753c1b65235,65a05b5ee7bb05ef1c8dafd9,0.23575965832589407,survey,session-65a05c46115e7,English,male,none
7572,survey-text,78,138374,0.0-4.0,anon_subject_12,659f04805339f753c1b65235,65a0471bfbe002ebe6cd92b9,0.3042260510748822,survey,session-65a047ae1158f,english,female,
11590,survey-text,46,101283,0.0-4.0,anon_subject_7,659f04805339f753c1b65235,65a027775aba9e5f885bef5b,0.6570270035300274,survey,session-65a027e97de4e,English,male,Thanks!
9071,survey-text,46,113340,0.0-4.0,anon_subject_99,659f04805339f753c1b65235,65a03f1b2086d07cc8439990,0.4012160519488479,survey,session-65a03f992592a,English,female,
9376,survey-text,54,161384,0.0-4.0,anon_subject_147,659f04805339f753c1b65235,65a0474b214275fb72e5c476,0.5543104442078839,survey,session-65a047f7133d3,English,Male,
8390,survey-text,46,150173,0.0-4.0,anon_subject_80,659f04805339f753c1b65235,65a047592a197f9cd83e42bd,0.2088060979110371,survey,session-65a0480195874,english,female,
64584,survey-text,46,198291,0.0-4.0,anon_subject_232,659f04805339f753c1b65235,65a03f2e10105f4dafafac4e,0.060988430879561406,survey,session-65a040d028e4f,English,Female,"I slipped up on one of those but I think I did well overall. For the potion one, I think you could grow vegetables in it depending on what type of potion it was. :)

Thank you and best regards!"
8949,survey-text,54,160495,0.0-4.0,anon_subject_130,659f04805339f753c1b65235,65a05a8d3e71fc9f72cd986b,0.03878543209658214,survey,session-65a05b3f16bec,english,male,
26043,survey-text,54,249083,0.0-4.0,anon_subject_206,659f04805339f753c1b65235,65a05a7915917193ea8a6a97,0.4894952541752151,survey,session-65a05b99b101a,English,Male,
9534,survey-text,78,909612,0.0-4.0,anon_subject_72,659f04805339f753c1b65235,65a05bcdf51e8f6fd7a748ab,0.1638616917487805,survey,session-65a06045248d1,English,Male,
12610,survey-text,54,128436,0.0-4.0,anon_subject_64,659f04805339f753c1b65235,65a03f1d2526f0c2765ca3b5,0.8413572211385306,survey,session-65a03fbe0b18d,English,Female,
9234,survey-text,54,124735,0.0-4.0,anon_subject_87,659f04805339f753c1b65235,65a05a63bdc3fb4b929b336a,0.7899975963684935,survey,session-65a05ae8ce414,english,female,
8577,survey-text,46,91834,0.0-4.0,anon_subject_189,659f04805339f753c1b65235,65a03f6e54a913c61d77546c,0.19647620085082806,survey,session-65a03fd4d2dd9,english,femaie,
9674,survey-text,46,97446,0.0-4.0,anon_subject_76,659f04805339f753c1b65235,65a05a8a158e1166c55f53da,0.8370301479934656,survey,session-65a05af41e709,English,Male,
9325,survey-text,46,132179,0.0-4.0,anon_subject_6,659f04805339f753c1b65235,65a0479f51ab53c1d1265a74,0.16846880399320896,survey,session-65a0483c77ac6,English,male,
36606,survey-text,54,380351,0.0-4.0,anon_subject_78,659f04805339f753c1b65235,65a05cb02c73291ebb384a81,0.35517556858883803,survey,session-65a05ef3dc596,English,Male,Great.
16118,survey-text,46,127518,0.0-4.0,anon_subject_16,659f04805339f753c1b65235,65a0479885d169d8295bf77b,0.6339271940314204,survey,session-65a0482121c69,English,Male,"N/A - No technical issues or otherwise, thank you!"
12297,survey-text,46,137261,0.0-4.0,anon_subject_293,659f04805339f753c1b65235,65a04746958dc9b1a7f39989,0.6364248336413934,survey,session-65a047e1d1c42,englisj,male,
6300,survey-text,62,120558,0.0-4.0,anon_subject_117,659f04805339f753c1b65235,65a02b758acfe7a551555843,0.8855515402511998,survey,session-65a02c583f6e8,english,female,
14958,survey-text,78,297605,0.0-4.0,anon_subject_198,659f04805339f753c1b65235,65a05a5f15177d3861dbebf3,0.032399229057037404,survey,session-65a05ba835d80,American English,Female,
25572,survey-text,78,137847,0.0-4.0,anon_subject_116,659f04805339f753c1b65235,65a03fb19db8b5fc2316f5e1,0.7200441704806846,survey,session-65a040445e7f7,English,Male,Some of the practice questions were not accurate. Did not expect this from Harvard.
18219,survey-text,78,224637,0.0-4.0,anon_subject_154,659f04805339f753c1b65235,65a03f5603787e97c70f7a5f,0.1272952742615565,survey,session-65a040636a6db,English,Female,None
8977,survey-text,54,113968,0.0-4.0,anon_subject_139,659f04805339f753c1b65235,65a05a85919a51b27c952d7a,0.658398265916212,survey,session-65a05b07b6540,English,Male,
7569,survey-text,46,88215,0.0-4.0,anon_subject_168,659f04805339f753c1b65235,65a03f25731e49bdea1b8eb1,0.1714630743906731,survey,session-65a03f955ba29,English ,Female,
7183,survey-text,46,121268,0.0-4.0,anon_subject_241,659f04805339f753c1b65235,65a047af5e58d51b4f3e4531,0.2194898071148006,survey,session-65a0482f594e2,English,Female,
12246,survey-text,46,79044,0.0-4.0,anon_subject_44,659f04805339f753c1b65235,65a04782125306e4f071fe40,0.5024601190993161,survey,session-65a047ea8c7b4,English,Male,n/a
137928,survey-text,46,245759,0.0-4.0,anon_subject_105,659f04805339f753c1b65235,65a024a7c92318ddab4a8d04,0.5743457981427009,survey,session-65a02606b7439,english,female,"I know I accidentally pressed 1 instead of 0 for one of the questions that was not a complete sentence (something about constructing something ""using at?"" or similar). I immediately said ""no!"" after i typed it, but of course, it was too late to change. Anyway, thanks! "
9524,survey-text,54,147410,0.0-4.0,anon_subject_93,659f04805339f753c1b65235,65a04ae6125306e4f071fef8,0.7337377035746249,survey,session-65a04b957dc6f,english,female ,
7883,survey-text,46,84393,0.0-4.0,anon_subject_136,659f04805339f753c1b65235,65a03f3fe7bb05ef1c8da8ca,0.15033325141771403,survey,session-65a03f9da5ce2,English,Male,
4611,survey-text,46,71919,0.0-4.0,anon_subject_261,659f04805339f753c1b65235,65a047715d139c5780748ff9,0.7077803464776335,survey,session-65a047c1bc28a,English,26,
6818,survey-text,62,142116,0.0-4.0,anon_subject_49,659f04805339f753c1b65235,65a05a7bb11a9bdf067759f4,0.12557480615522665,survey,session-65a05b1ca7bad,english,male,
7874,survey-text,54,98649,0.0-4.0,anon_subject_113,659f04805339f753c1b65235,65a05a72fc7c4acd585d662d,0.017841017663752234,survey,session-65a05b420a1fa,English,Male,
12126,survey-text,54,109823,0.0-4.0,anon_subject_52,659f04805339f753c1b65235,65a02a816243e6d43e383d37,0.26497513126614836,survey,session-65a02b571c787,English,Female,
15144,survey-text,46,532037,0.0-4.0,anon_subject_235,659f04805339f753c1b65235,65a047946d1220a64a0f41a6,0.3730065067076823,survey,session-65a04b0f5ec6b,English,Man,NA
10982,survey-text,62,158831,0.0-4.0,anon_subject_264,659f04805339f753c1b65235,65a03f289b6bc005fb6bdd7d,0.2458746283398443,survey,session-65a03fd28589c,English,female,
12232,survey-text,54,182497,0.0-4.0,anon_subject_141,659f04805339f753c1b65235,65a04769975ac8e822b375b2,0.10730645967242514,survey,session-65a0482e20da7,english,male,
5579,survey-text,94,217183,0.0-4.0,anon_subject_190,659f04805339f753c1b65235,65a05c965d139c57807494a1,0.01367335181736351,survey,session-65a05d7b42d4a,English,Male,
14614,survey-text,62,165213,0.0-4.0,anon_subject_242,659f04805339f753c1b65235,65a0474130a5ced3f5c44fca,0.03345420482642636,survey,session-65a048008ac7d,English,Female,"None, thank you."
8188,survey-text,54,839209,0.0-4.0,anon_subject_209,659f04805339f753c1b65235,65a05a713f91fc3cf7f39ca6,0.6305889994092155,survey,session-65a05dd941c45,English,Male,
200767,survey-text,46,313398,0.0-4.0,anon_subject_31,659f04805339f753c1b65235,65a02abf7b9063ef91411d9e,0.6912217385606416,survey,session-65a02c12618ed,English,Male,
8788,survey-text,54,127753,0.0-4.0,anon_subject_278,659f04805339f753c1b65235,65a05ca8c9e1a662cc1f67cf,0.026706667397647488,survey,session-65a05d34f18cc,English,Female,
10197,survey-text,62,144697,0.0-4.0,anon_subject_281,659f04805339f753c1b65235,65a05a8239341d75b93cfd3c,0.8890390842388958,survey,session-65a05b3dbf6e2,English,Female,
8073,survey-text,54,120515,0.0-4.0,anon_subject_194,659f04805339f753c1b65235,65a04795fe51d8b6cef36a06,0.3603332391324071,survey,session-65a0481d18893,English,Male,
37981,survey-text,102,438711,0.0-4.0,anon_subject_256,659f04805339f753c1b65235,65a0472ab11a9bdf0677551b,0.06766187323333273,survey,session-65a048fa7df12,English,Female,Nothing to add.
8034,survey-text,62,120967,0.0-4.0,anon_subject_218,659f04805339f753c1b65235,65a0473104c0c720ac5ca4ef,0.017088213941740316,survey,session-65a047b55cf32,english,male,
14809,survey-text,54,673181,0.0-4.0,anon_subject_253,659f04805339f753c1b65235,65a05d1f3e71fc9f72cd994e,0.678642556070659,survey,session-65a05fed82019,english,male,nice study
13742,survey-text,54,159625,0.0-4.0,anon_subject_171,659f04805339f753c1b65235,65a03f5539341d75b93cf6c7,0.9932319703116781,survey,session-65a040653ec0f,English,Female,N/A
11574,survey-text,46,88609,0.0-4.0,anon_subject_163,659f04805339f753c1b65235,65a04753fc35e12f32bde2d3,0.15639593185298595,survey,session-65a047c729d9f,English,Female,
7185,survey-text,54,112510,0.0-4.0,anon_subject_114,659f04805339f753c1b65235,65a047146bac4df6251b8fc1,0.9774638490997802,survey,session-65a047912c169,english,male,
9287,survey-text,46,159123,0.0-4.0,anon_subject_120,659f04805339f753c1b65235,65a03f49e6891ded9ae078f3,0.938757886610172,survey,session-65a03fffbac72,english,female,
8044,survey-text,46,136102,0.0-4.0,anon_subject_160,659f04805339f753c1b65235,65a04766461451c85ed4f448,0.12272541383576141,survey,session-65a0480a3ecdf,English,Male,
10544,survey-text,78,252238,0.0-4.0,anon_subject_180,659f04805339f753c1b65235,65a05b982c73291ebb384a49,0.3944721842127905,survey,session-65a05ddd1ec2f,English,Female,
21227,survey-text,62,229382,0.0-4.0,anon_subject_88,659f04805339f753c1b65235,65a05a8e277118eefd0f4627,0.3257964881443767,survey,session-65a05b8c7a9bf,English,Male,
4520,survey-text,46,77199,0.0-4.0,anon_subject_238,659f04805339f753c1b65235,65a0474a6451f41271c33090,0.18570924259063948,survey,session-65a047a1d67c5,English,Male,
16019,survey-text,62,186609,0.0-4.0,anon_subject_179,659f04805339f753c1b65235,65a05a82e0a30daee58a6de3,0.7013822465798254,survey,session-65a05b54f0320,English,Woman,
8091,survey-text,70,133077,0.0-4.0,anon_subject_54,659f04805339f753c1b65235,65a048432a197f9cd83e4309,0.7230288644411063,survey,session-65a048d54b0cb,English,male,
12488,survey-text,54,153811,0.0-4.0,anon_subject_45,659f04805339f753c1b65235,65a03f822fb72900ba26554e,0.17161122431440168,survey,session-65a0402dec6dd,english,female,
11494,survey-text,46,133520,0.0-4.0,anon_subject_207,659f04805339f753c1b65235,65a03ebc2fb72900ba265521,0.1384644279547682,survey,session-65a03f5bb5c55,English,Non-binary,
5887,survey-text,70,144710,0.0-4.0,anon_subject_167,659f04805339f753c1b65235,65a0472d958dc9b1a7f39985,0.0759738127939864,survey,session-65a047c619722,English,Female,
4738,survey-text,46,88775,0.0-4.0,anon_subject_266,659f04805339f753c1b65235,65a0257d591c52695cdbe046,0.05153068693263907,survey,session-65a025e041e9b,English,Female,
17361,survey-text,62,199221,0.0-4.0,anon_subject_55,659f04805339f753c1b65235,65a047ab4720b6d4848fd62c,0.8300249422159358,survey,session-65a04880b87da,English,Female,
7845,survey-text,46,87592,0.0-4.0,anon_subject_221,659f04805339f753c1b65235,65a047085068c51fec46d7e8,0.09009117329510219,survey,session-65a049244b3f9,English,Male,
10820,survey-text,46,93767,0.0-4.0,anon_subject_150,659f04805339f753c1b65235,65a05a6f6616b428b1412c29,0.7749787625843192,survey,session-65a05ada8a5a0,English,Woman,N/A
20947,survey-text,46,119030,0.0-4.0,anon_subject_252,659f04805339f753c1b65235,65a04772318f24d898a60b6f,0.5724190430326754,survey,session-65a04820afc22,English,Male,I don't really have any.
9233,survey-text,46,92110,0.0-4.0,anon_subject_197,659f04805339f753c1b65235,65a0472ae1f78d9853e38f75,0.5893754308536094,survey,session-65a0478f5a60e,English,woman,
11770,survey-text,54,167288,0.0-4.0,anon_subject_71,659f04805339f753c1b65235,65a04874dc0d74b929e38c63,0.030408508982043614,survey,session-65a04929a442a,English,nonbinary,
9359,survey-text,54,250530,0.0-4.0,anon_subject_35,659f04805339f753c1b65235,65a05a726e869bf85df4de03,0.18819349818917352,survey,session-65a05bba92998,english,male,none
7545,survey-text,78,232850,0.0-4.0,anon_subject_165,659f04805339f753c1b65235,65a02b82b11a9bdf06774e9c,0.4578861962008951,survey,session-65a02cacdf987,english,female,
8597,survey-text,46,98027,0.0-4.0,anon_subject_124,659f04805339f753c1b65235,65a05a7dd15130d9d4b37b5a,0.25178844572599135,survey,session-65a05b1a10c72,English,M,
6132,survey-text,46,77102,0.0-4.0,anon_subject_83,659f04805339f753c1b65235,65a03e983769279b830a4bb2,0.9203480672680291,survey,session-65a03ef76d39c,English,Female,
16409,survey-text,54,194961,0.0-4.0,anon_subject_53,659f04805339f753c1b65235,65a03f2b0f99dc411697c39c,0.033512744339336153,survey,session-65a03ffa70226,English,Male,
8180,survey-text,78,186916,0.0-4.0,anon_subject_81,659f04805339f753c1b65235,65a03f1cbdb9a99a2e4f3d1f,0.9716174962139885,survey,session-65a03fe145419,English,Male,
5496,survey-text,46,92950,0.0-4.0,anon_subject_239,659f04805339f753c1b65235,65a05b0ae1f78d9853e3950e,0.5562027715333759,survey,session-65a05b8948465,English,Male,
17858,survey-text,54,159118,0.0-4.0,anon_subject_15,659f04805339f753c1b65235,65a05a838320fc7c6257b176,0.0742803095064215,survey,session-65a05e49a7061,English,female,
8781,survey-text,54,105650,0.0-4.0,anon_subject_199,659f04805339f753c1b65235,65a05a76ab05057d2f5b297a,0.858401561544712,survey,session-65a05aea25545,english,female,
28383,survey-text,46,182706,0.0-4.0,anon_subject_60,659f04805339f753c1b65235,65a05a9110105f4dafafb266,0.5324648497629871,survey,session-65a05b52413e4,English,female,no issues
5598,survey-text,54,96960,0.0-4.0,anon_subject_79,659f04805339f753c1b65235,65a047970e6a0108526bdee0,0.3575557730812433,survey,session-65a04803caf33,english,female,
15234,survey-text,46,135668,0.0-4.0,anon_subject_292,659f04805339f753c1b65235,65a05ca0fc35e12f32bde7aa,0.7632217748086811,survey,session-65a05d3f6cfd5,English,Female,None
13541,survey-text,46,105913,0.0-4.0,anon_subject_155,659f04805339f753c1b65235,65a024201d9b385e9c5ff534,0.6278779518396189,survey,session-65a024a610277,English,F,
8276,survey-text,54,124150,0.0-4.0,anon_subject_268,659f04805339f753c1b65235,65a05b00591c52695cdbed67,0.751689602321034,survey,session-65a05b8f25dba,English,Male,
5838,survey-text,46,73581,0.0-4.0,anon_subject_5,659f04805339f753c1b65235,65a04717461451c85ed4f435,0.11894077212290377,survey,session-65a0476edb6ab,English,Nonbinary,
7122,survey-text,46,107900,0.0-4.0,anon_subject_247,659f04805339f753c1b65235,65a03ef8dc0d74b929e38ab0,0.39760352171414026,survey,session-65a03f754d3b4,english,male,
11702,survey-text,46,109534,0.0-4.0,anon_subject_200,659f04805339f753c1b65235,65a03effce8132962971fd6f,0.3567105562292955,survey,session-65a03fa711a52,English,Female,Fun!
3584,survey-text,54,55798,0.0-4.0,anon_subject_50,659f04805339f753c1b65235,65a047756616b428b14127bd,0.6090204255975686,survey,session-65a047e95ff31,English,Male,
8989,survey-text,54,135940,0.0-4.0,anon_subject_127,659f04805339f753c1b65235,65a05a78e7bb05ef1c8daf8a,0.9713746656165332,survey,session-65a05b0c20ace,english,Transgender female,
6232,survey-text,70,134576,0.0-4.0,anon_subject_170,659f04805339f753c1b65235,65a03f643f91fc3cf7f39646,0.32051229274893367,survey,session-65a03ffa9c274,english,female,
17525,survey-text,46,139465,0.0-4.0,anon_subject_98,659f04805339f753c1b65235,65a02a93f51e8f6fd7a73b63,0.2940401956972942,survey,session-65a02b51cb690,English,Female,
28647,survey-text,46,181709,0.0-4.0,anon_subject_229,659f04805339f753c1b65235,65a05ae007de5e75355b287c,0.8922053790283111,survey,session-65a05bb1a04b6,English,Female,Thank you for the opportunity.
8130,survey-text,54,126023,0.0-4.0,anon_subject_186,659f04805339f753c1b65235,65a03f841d9b385e9c5ffcaf,0.18671391484020416,survey,session-65a0400d8a7a9,english,female,
35402,survey-text,86,258498,0.0-4.0,anon_subject_46,659f04805339f753c1b65235,65a0478cbdb9a99a2e4f3ea0,0.6224157413950246,survey,session-65a048ac96d18,English,Female,
6379,survey-text,54,109290,0.0-4.0,anon_subject_288,659f04805339f753c1b65235,65a05a755e58d51b4f3e4994,0.23330471641120143,survey,session-65a05af08038f,English,Male,
361012,survey-text,78,554396,0.0-4.0,anon_subject_231,659f04805339f753c1b65235,65a05b02ee5c94479846dbb7,0.9389177380067755,survey,session-65a05e1c11c14,english,male,
5936,survey-text,46,75327,0.0-4.0,anon_subject_214,659f04805339f753c1b65235,65a048175d139c5780749015,0.6544557812460228,survey,session-65a0487804e80,English,Male,
7367,survey-text,86,169375,0.0-4.0,anon_subject_191,659f04805339f753c1b65235,65a05ad70198a4a3951f6724,0.24936859162458447,survey,session-65a05c741a0a0,English,Male,N/A
11814,survey-text,46,97723,0.0-4.0,anon_subject_188,659f04805339f753c1b65235,65a047166af24254f25d624b,0.3535721332259063,survey,session-65a04780efcc3,English,Female,
17692,survey-text,62,143558,0.0-4.0,anon_subject_121,659f04805339f753c1b65235,65a0481bba9f28bc37c44d6e,0.3574182145019795,survey,session-65a048b3d74c1,English,Male,Interesting survey enjoyed it!
4213,survey-text,54,174917,0.0-4.0,anon_subject_185,659f04805339f753c1b65235,65a05a80ee5c94479846db95,0.7212377113972923,survey,session-65a05b36f24cf,English,Male,
8768,survey-text,62,136174,0.0-4.0,anon_subject_67,659f04805339f753c1b65235,65a05a5bcb1340048e210a99,0.0050832092129033946,survey,session-65a05af78d67e,English,Female,
5986,survey-text,46,123455,0.0-4.0,anon_subject_41,659f04805339f753c1b65235,65a05a83731e49bdea1b9610,0.9344356490744588,survey,session-65a05b0e04425,English,Male,
10300,survey-text,46,109541,0.0-4.0,anon_subject_14,659f04805339f753c1b65235,65a0481ae6891ded9ae07aa6,0.19901813731265516,survey,session-65a04890d8cac,English,Male,
10876,survey-text,62,135545,0.0-4.0,anon_subject_240,659f04805339f753c1b65235,65a047930f99dc411697c564,0.4498940111636538,survey,session-65a04833b7e26,English,female,
6134,survey-text,46,112894,0.0-4.0,anon_subject_178,659f04805339f753c1b65235,65a04753d046c4fd2b9050e7,0.6131689394647788,survey,session-65a047d7ad3c6,English,Female,
10448,survey-text,46,135288,0.0-4.0,anon_subject_8,659f04805339f753c1b65235,65a03f4b2fb72900ba265539,0.693294017740814,survey,session-65a04007d01d4,English,male,
8854,survey-text,46,131513,0.0-4.0,anon_subject_255,659f04805339f753c1b65235,65a05a556451f41271c335a3,0.04135264080246903,survey,session-65a05af305311,english,Male,
14144,survey-text,46,167838,0.0-4.0,anon_subject_219,659f04805339f753c1b65235,65a05a7f0e6a0108526be3f3,0.32594609042892064,survey,session-65a05b30c6618,English,Female,
50568,survey-text,118,409929,0.0-4.0,anon_subject_123,659f04805339f753c1b65235,65a05a7be0a30daee58a6ddf,0.5271273715300286,survey,session-65a05c30728b1,english,female,"some of the questions made me wanna say maybe, so the maybe question I answered with a yes . interesting study, best of luck"
6802,survey-text,54,124133,0.0-4.0,anon_subject_243,659f04805339f753c1b65235,65a05a77c799135a5fbde5c9,0.3432732016889044,survey,session-65a05aff05676,English,female,
5305,survey-text,54,202405,0.0-4.0,anon_subject_125,659f04805339f753c1b65235,65a047a1214275fb72e5c48d,0.20499888218495,survey,session-65a04876ae4c5,English,Female,
5827,survey-text,46,84389,0.0-4.0,anon_subject_134,659f04805339f753c1b65235,65a0480b587aebae10afac85,0.6541333759947272,survey,session-65a0486ba2428,English,woman,
7592,survey-text,46,112471,0.0-4.0,anon_subject_95,659f04805339f753c1b65235,65a03f4e3769279b830a4bcf,0.19239755949945425,survey,session-65a03fc7e7bc0,English,Male,
9126,survey-text,46,521126,0.0-4.0,anon_subject_151,659f04805339f753c1b65235,65a05a843cf0fef29ad2aeba,0.7961975160205049,survey,session-65a05c96500a3,english,female,
10327,survey-text,62,204922,0.0-4.0,anon_subject_249,659f04805339f753c1b65235,65a0478e6ffb1e2a7c439d59,0.12619914396633192,survey,session-65a0487022b32,English,Female,
9224,survey-text,54,164754,0.0-4.0,anon_subject_287,659f04805339f753c1b65235,65a05a7b97cef2e56e5ff019,0.4916120020231023,survey,session-65a05b4493325,english,female,
10726,survey-text,46,135628,0.0-4.0,anon_subject_215,659f04805339f753c1b65235,65a04829dc0d74b929e38c57,0.8846510997973395,survey,session-65a048c6dd491,English,Woman,
5731,survey-text,78,103143,0.0-4.0,anon_subject_166,659f04805339f753c1b65235,65a05a8515917193ea8a6a9c,0.48598553831394575,survey,session-65a05c8fe1fc8,English,Female,
6166,survey-text,46,82584,0.0-4.0,anon_subject_291,659f04805339f753c1b65235,65a05a666ffb1e2a7c43a1eb,0.21703908247595738,survey,session-65a05ac7a3883,English,Female,
8432,survey-text,54,121400,0.0-4.0,anon_subject_66,659f04805339f753c1b65235,65a047756451f41271c33099,0.6377392893134102,survey,session-65a047f70913d,English,male,
10124,survey-text,54,111344,0.0-4.0,anon_subject_110,659f04805339f753c1b65235,65a03fe08acfe7a551555d3e,0.7161891537004954,survey,session-65a0405c27bf4,English,Female,
8899,survey-text,86,438852,0.0-4.0,anon_subject_295,659f04805339f753c1b65235,65a03f045aba9e5f885bf572,0.8202277259788016,survey,session-65a040ffaafc5,English,Male,
7281,survey-text,78,205065,0.0-4.0,anon_subject_202,659f04805339f753c1b65235,65a02b99df665e0bdfac3128,0.016019391432744223,survey,session-65a02c7fc6013,english,female,
8096,survey-text,62,116183,0.0-4.0,anon_subject_196,659f04805339f753c1b65235,65a05a8c39341d75b93cfd46,0.9473081463998588,survey,session-65a05b07a6c26,English,Female,
5538,survey-text,54,163754,0.0-4.0,anon_subject_104,659f04805339f753c1b65235,65a03ef5f34b5631810f7ae4,0.548682916580637,survey,session-65a03fa3076bc,english,male,
7430,survey-text,46,89200,0.0-4.0,anon_subject_216,659f04805339f753c1b65235,65a0476f85d169d8295bf773,0.7357667372587795,survey,session-65a047d96efde,English,female,
7714,survey-text,46,93275,0.0-4.0,anon_subject_138,659f04805339f753c1b65235,65a0478df60c89cb8720388d,0.5428031548823611,survey,session-65a0480246653,English,Female,
10842,survey-text,46,171852,0.0-4.0,anon_subject_225,659f04805339f753c1b65235,65a047877db586ea67a73fb1,0.17007485020239343,survey,session-65a0483f4bb94,English,Male,
9338,survey-text,46,119082,0.0-4.0,anon_subject_37,659f04805339f753c1b65235,65a03f663cf0fef29ad2a842,0.19332914033064696,survey,session-65a03fedeae52,English,Male,
7300,survey-text,46,102688,0.0-4.0,anon_subject_102,659f04805339f753c1b65235,65a047439066460e83748fbc,0.676353038354673,survey,session-65a047bb02656,English,Male,
15403,survey-text,46,236012,0.0-4.0,anon_subject_294,659f04805339f753c1b65235,65a03efd7f819f0a85932c99,0.4926722633095306,survey,session-65a03ff957d4e,English,60,
18435,survey-text,54,199458,0.0-4.0,anon_subject_97,659f04805339f753c1b65235,65a03f618df63a282e2103df,0.7535972838720045,survey,session-65a0404e65a69,english,male,
6192,survey-text,54,102266,0.0-4.0,anon_subject_140,659f04805339f753c1b65235,65a03ed27981ab69f5c32d3b,0.4947655554378607,survey,session-65a03f798069e,english,M,
10725,survey-text,62,142983,0.0-4.0,anon_subject_212,659f04805339f753c1b65235,65a03eeceeee5416c5400edb,0.45971389060121237,survey,session-65a03f84d860c,English,Female,
26372,survey-text,46,112598,0.0-4.0,anon_subject_89,659f04805339f753c1b65235,65a03f876ffb1e2a7c439b98,0.5917389509383688,survey,session-65a040091a7e0,English,Male,
78136,survey-text,46,202118,0.0-4.0,anon_subject_59,659f04805339f753c1b65235,65a05a8a587aebae10afb10c,0.2789340819513817,survey,session-65a05b608e0de,English,female,
19339,survey-text,46,138597,0.0-4.0,anon_subject_22,659f04805339f753c1b65235,65a05a865d139c5780749420,0.13103631860394138,survey,session-65a05b5c4e315,English,female,This was fun! Thanks
10331,survey-text,54,164960,0.0-4.0,anon_subject_161,659f04805339f753c1b65235,65a03e9c8acfe7a551555ccf,0.43043810062398635,survey,session-65a03f624c530,englist,female,
9117,survey-text,62,155140,0.0-4.0,anon_subject_213,659f04805339f753c1b65235,65a0475e6e869bf85df4d84f,0.29345326806972105,survey,session-65a048034fe5f,english,male,
7390,survey-text,54,113062,0.0-4.0,anon_subject_82,659f04805339f753c1b65235,65a047860e6a0108526bded6,0.14104643866491684,survey,session-65a0480321c8f,English,Male,
14927,survey-text,46,126615,0.0-4.0,anon_subject_210,659f04805339f753c1b65235,65a05a733ac2f375865f5303,0.3038544448695617,survey,session-65a05b04a4f41,English,Male,n/a
44459,survey-text,46,173663,0.0-4.0,anon_subject_61,659f04805339f753c1b65235,65a047761d9b385e9c5ffe7c,0.8393668795254248,survey,session-65a0484c497ce,english -asl,female," how wierd, some of those questions make sense in a poetic way, or  looked at funny"
6808,survey-text,46,86346,0.0-4.0,anon_subject_56,659f04805339f753c1b65235,65a05a8a6451f41271c335b3,0.32652792631992744,survey,session-65a05aeae845a,English,Male,
9515,survey-text,54,128066,0.0-4.0,anon_subject_257,659f04805339f753c1b65235,65a0471a591c52695cdbe8a9,0.2096322973397371,survey,session-65a047ae94c9d,english,woman,
7214,survey-text,46,111318,0.0-4.0,anon_subject_92,659f04805339f753c1b65235,65a0475254a913c61d775644,0.6024728632331198,survey,session-65a047d26a3eb,English,Male,
7298,survey-text,70,132966,0.0-4.0,anon_subject_21,659f04805339f753c1b65235,65a0476be7bb05ef1c8daa8f,0.9285172744524561,survey,session-65a047fe4e782,English,Male,
8601,survey-text,78,162353,0.0-4.0,anon_subject_269,659f04805339f753c1b65235,65a047a530f6e0140ae07e18,0.9716317915813271,survey,session-65a04856cf0c0,english,female,
6296,survey-text,62,165921,0.0-4.0,anon_subject_1,659f04805339f753c1b65235,65a0477d6d1220a64a0f419e,0.07764599261030303,survey,session-65a04836ee0a3,English,38,
10982,survey-text,54,127750,0.0-4.0,anon_subject_17,659f04805339f753c1b65235,65a05a8bf6ae756dfe33e958,0.9061938860009009,survey,session-65a05b1bee90b,english,female,
11434,survey-text,54,195410,0.0-4.0,anon_subject_142,659f04805339f753c1b65235,65a03f88d046c4fd2b904f2d,0.18068458197456883,survey,session-65a04091aaee5,english,male,
20607,survey-text,46,116668,0.0-4.0,anon_subject_29,659f04805339f753c1b65235,65a05a6d15917193ea8a6a8f,0.16211251786157743,survey,session-65a05af4117c1,Englisdh,Male,no comments
7884,survey-text,46,103557,0.0-4.0,anon_subject_63,659f04805339f753c1b65235,65a047406af24254f25d6263,0.9198673525762547,survey,session-65a047b6c8d5c,english,35,
11017,survey-text,54,253643,0.0-4.0,anon_subject_284,659f04805339f753c1b65235,65a02b6bcf2ed81aa216f0ca,0.8011214510009381,survey,session-65a02c8c74dd5,English,Male,
4261,survey-text,62,134134,0.0-4.0,anon_subject_237,659f04805339f753c1b65235,65a02b038acfe7a5515557f8,0.7673643802815875,survey,session-65a02b93ac387,English,Male,
10719,survey-text,46,100628,0.0-4.0,anon_subject_131,659f04805339f753c1b65235,65a03f689066460e83748dda,0.055097621761941884,survey,session-65a0401b200a5,English,Female,Have a great day!
12065,survey-text,46,138915,0.0-4.0,anon_subject_19,659f04805339f753c1b65235,65a05a5a0198a4a3951f6709,0.9599778496876901,survey,session-65a05d02a7a97,english,male,fun thx
18000,survey-text,46,126722,0.0-4.0,anon_subject_280,659f04805339f753c1b65235,65a047821ffc042b4f545e75,0.45211612197737105,survey,session-65a04819c7917,english,female,fun activity!
8018,survey-text,46,100461,0.0-4.0,anon_subject_156,659f04805339f753c1b65235,65a04797ce8132962971ffe6,0.6197971509750642,survey,session-65a0480a53b3e,english,female,
9373,survey-text,54,248939,0.0-4.0,anon_subject_126,659f04805339f753c1b65235,65a03f253cf0fef29ad2a82c,0.9529210887221725,survey,session-65a040305fef7,english,male,
14912,survey-text,46,118826,0.0-4.0,anon_subject_96,659f04805339f753c1b65235,65a04720420a02f3939b322b,0.12469492739170152,survey,session-65a047b091ee7,English,Male,
4256,survey-text,62,145563,0.0-4.0,anon_subject_94,659f04805339f753c1b65235,65a05a81c3a05e150c57b622,0.6193868187069016,survey,session-65a05b1d857c2,English,Male,
18873,survey-text,46,115764,0.0-4.0,anon_subject_271,659f04805339f753c1b65235,65a047542a197f9cd83e42ba,0.15957627589179735,survey,session-65a047f99d025,english,femail,
6501,survey-text,46,84359,0.0-4.0,anon_subject_193,659f04805339f753c1b65235,65a03f33214275fb72e5c2ef,0.7596065740239143,survey,session-65a03f94bd5e3,English,Female,
15307,survey-text,46,167241,0.0-4.0,anon_subject_111,659f04805339f753c1b65235,65a047ae3769279b830a4d81,0.886667983865651,survey,session-65a04862a38f1,English,male,
14375,survey-text,46,176266,0.0-4.0,anon_subject_262,659f04805339f753c1b65235,65a02b2bba9f28bc37c446df,0.176992031245097,survey,session-65a02c2a09112,English,Female,
10695,survey-text,54,132723,0.0-4.0,anon_subject_101,659f04805339f753c1b65235,65a05a61fe51d8b6cef36e76,0.9222336217211988,survey,session-65a05b57486b5,english,female,
6605,survey-text,54,112981,0.0-4.0,anon_subject_297,659f04805339f753c1b65235,65a040e00198a4a3951f613b,0.4954437267559386,survey,session-65a041583ce7c,english,male,
11986,survey-text,54,103520,0.0-4.0,anon_subject_217,659f04805339f753c1b65235,65a05a78a870e799565462a7,0.6863760239185992,survey,session-65a05aeba57a4,English,Male,
8230,survey-text,78,127487,0.0-4.0,anon_subject_177,659f04805339f753c1b65235,65a03f3f7981ab69f5c32d64,0.8282521214929688,survey,session-65a03fca95dc9,English,Female,
14983,survey-text,46,132691,0.0-4.0,anon_subject_286,659f04805339f753c1b65235,65a04773a068e743e9555bd4,0.5870452131345207,survey,session-65a04823e235f,English,Female,Thank you for letting me participate!
9731,survey-text,54,159816,0.0-4.0,anon_subject_70,659f04805339f753c1b65235,65a04784e6891ded9ae07a7d,0.6409343559275458,survey,session-65a048380be29,English,female,
13726,survey-text,46,108818,0.0-4.0,anon_subject_43,659f04805339f753c1b65235,65a03fa2975ac8e822b372d7,0.9913226701748024,survey,session-65a0408f039c5,English,Female,
9300,survey-text,46,116592,0.0-4.0,anon_subject_173,659f04805339f753c1b65235,65a05a63420a02f3939b3815,0.1034297357750682,survey,session-65a05ae561371,English,Female,
15146,survey-text,62,301602,0.0-4.0,anon_subject_296,659f04805339f753c1b65235,65a05a662159acf4685805f9,0.5580582794481992,survey,session-65a05c0be8cf9,english,female,
30936,survey-text,110,374555,0.0-4.0,anon_subject_129,659f04805339f753c1b65235,65a05a8e0e6a0108526be3f6,0.16039678129796164,survey,session-65a05c44b2969,english,male,Not sure if some are trick questions the way they are phrased 
56388,survey-text,54,366312,0.0-4.0,anon_subject_201,659f04805339f753c1b65235,65a05a6b15177d3861dbebf5,0.40493506703625237,survey,session-65a05beaec752,Tagalog,Male,I would love to do more like this!
19259,survey-text,62,246770,0.0-4.0,anon_subject_25,659f04805339f753c1b65235,65a047b15e58d51b4f3e4533,0.9933303554264158,survey,session-65a048b8aa9a9,English,male,Thank You
5315,survey-text,46,137093,0.0-4.0,anon_subject_86,659f04805339f753c1b65235,65a03f6d987bd492454d456f,0.7650713891521803,survey,session-65a0402b9d1da,English,Female,
12022,survey-text,46,223713,0.0-4.0,anon_subject_224,659f04805339f753c1b65235,65a05b78c58774cde45feda0,0.6760015374032339,survey,session-65a05c6522b91,English,Male,
8742,survey-text,62,271294,0.0-4.0,anon_subject_204,659f04805339f753c1b65235,65a05a7c6e869bf85df4de05,0.9856063194649065,survey,session-65a05ba387964,english,male,ty
7171,survey-text,62,144406,0.0-4.0,anon_subject_132,659f04805339f753c1b65235,65a028b8a068e743e955550a,0.9632509395969919,survey,session-65a02957d1efb,English,Male,
9189,survey-text,54,167909,0.0-4.0,anon_subject_274,659f04805339f753c1b65235,65a05cb4c9e1a662cc1f67d3,0.564191779231261,survey,session-65a05d7c3ea33,English,Female,
8232,survey-text,46,142888,0.0-4.0,anon_subject_227,659f04805339f753c1b65235,65a05a803cf0fef29ad2aeb6,0.07669682863044125,survey,session-65a05b1fbc647,,,
6777,survey-text,46,118512,0.0-4.0,anon_subject_248,659f04805339f753c1b65235,65a047ac277118eefd0f4144,0.14548094641213916,survey,session-65a0490b43ff0,English,Male,
8099,survey-text,46,162574,0.0-4.0,anon_subject_0,659f04805339f753c1b65235,65a05a7af60c89cb87203dc8,0.14687427963406408,survey,session-65a05bf152bfb,english,male,
10033,survey-text,46,128093,0.0-4.0,anon_subject_26,659f04805339f753c1b65235,65a047653ac2f375865f4ecb,0.07085894228254297,survey,session-65a047f353b99,english,male,
11257,survey-text,54,201548,0.0-4.0,anon_subject_23,659f04805339f753c1b65235,65a04743587aebae10afac66,0.764876894226086,survey,session-65a0482ca0b4f,english,male,
8529,survey-text,46,103891,0.0-4.0,anon_subject_183,659f04805339f753c1b65235,65a02959ac5a610e8f99de3f,0.14523445851099503,survey,session-65a029d61b4d6,English,Non-binary,
10092,survey-text,54,217090,0.0-4.0,anon_subject_176,659f04805339f753c1b65235,65a0475603787e97c70f7cb4,0.24531131544152207,survey,session-65a0485da91b1,English,Female,
11850,survey-text,46,103678,0.0-4.0,anon_subject_137,659f04805339f753c1b65235,65a05a76958dc9b1a7f39e60,0.969723734626087,survey,session-65a05b363a76a,English,Male,
22952,survey-text,78,328915,0.0-4.0,anon_subject_73,659f04805339f753c1b65235,65a05a6c05a2eebaddf4d865,0.05947860568553898,survey,session-65a05bd13760b,english,male,weird study
23400,survey-text,46,153170,0.0-4.0,anon_subject_144,659f04805339f753c1b65235,65a0276b97cef2e56e5fe34e,0.891700260433824,survey,session-65a0281f5d2cf,english,female,
